Folder: DataAnalysis/data/W6723/XRD_Phi

Note: README.md
# Methods
## RSM analysis

Check out [doc](documentation/RSM.md)

File: W6723_Al2O3_phi_360deg_25min_3mm_active_2.xy
-125.685 74.000
-124.485 60.000
-123.285 76.000
-122.085 70.000
-120.885 71.000
-119.685 68.000
-118.485 61.000
-117.285 65.000
-116.085 71.000
-114.885 54.000
-113.685 73.000
-112.485 61.000
-111.285 72.000
-110.085 68.000
-108.885 56.000
-107.685 57.000
-106.485 60.000
-105.285 53.000
-104.085 74.000
-102.885 60.000
-101.685 66.000
-100.485 61.000
-99.28500 59.000
-98.08500 55.000
-96.88500 56.000
-95.68500 58.000
-94.48500 54.000
-93.28500 62.000
-92.08500 64.000
-90.88500 55.000
-89.68500 59.000
-88.48500 59.000
-87.28500 41.000
-86.08500 60.000
-84.88500 62.000
-83.68500 56.000
-82.48500 60.000
-81.28500 62.000
-80.08500 64.000
-78.88500 48.000
-77.68500 65.000
-76.48500 66.000
-75.28500 62.000
-74.08500 60.000
-72.88500 62.000
-71.68500 75.000
-70.48500 56.000
-69.28500 49.000
-68.08500 72.000
-66.88500 60.000
-65.68500 71.000
-64.48500 58.000
-63.28500 65.000
-62.08500 62.000
-60.88500 54.000
-59.68500 67.000
-58.48500 53.000
-57.28500 78.000
-56.08500 60.000
-54.88500 71.000
-53.68500 80.000
-52.48500 93.000
-51.28500 76.000
-50.08500 75.000
-48.88500 63.000
-47.68500 72.000
-46.48500 69.000
-45.28500 46.000
-44.08500 49.000
-42.88500 58.000
-41.68500 57.000
-40.48500 56.000
-39.28500 62.000
-38.08500 68.000
-36.88500 66.000
-35.68500 56.000
-34.48500 66.000
-33.28500 64.000
-32.08500 57.000
-30.88500 71.000
-29.68500 61.000
-28.48500 52.000
-27.28500 66.000
-26.08500 75.000
-24.88500 72.000
-23.68500 71.000
-22.48500 67.000
-21.28500 54.000
-20.08500 60.000
-18.88500 59.000
-17.68500 63.000
-16.48500 66.000
-15.28500 47.000
-14.08500 76.000
-12.88500 75.000
-11.68500 62.000
-10.48500 62.000
-9.28500 68.000
-8.08500 58.000
-6.88500 58.000
-5.68500 77.000
-4.48500 52.000
-3.28500 59.000
-2.08500 48.000
-0.88500 61.000
0.31500 55.000
1.51500 48.000
2.71500 40.000
3.91500 35.000
5.11500 53.000
6.31500 46.000
7.51500 35.000
8.71500 39.000
9.91500 34.000
11.11500 33.000
12.31500 35.000
13.51500 42.000
14.71500 27.000
15.91500 27.000
17.11500 21.000
18.31500 36.000
19.51500 44.000
20.71500 30.000
21.91500 24.000
23.11500 40.000
24.31500 26.000
25.51500 45.000
26.71500 40.000
27.91500 34.000
29.11500 41.000
30.31500 50.000
31.51500 55.000
32.71500 65.000
33.91500 66.000
35.11500 78.000
36.31500 82.000
37.51500 61.000
38.71500 66.000
39.91500 68.000
41.11500 75.000
42.31500 69.000
43.51500 76.000
44.71500 70.000
45.91500 69.000
47.11500 62.000
48.31500 56.000
49.51500 63.000
50.71500 61.000
51.91500 70.000
53.11500 52.000
54.31500 91.000
55.51500 77.000
56.71500 57.000
57.91500 61.000
59.11500 56.000
60.31500 63.000
61.51500 59.000
62.71500 60.000
63.91500 54.000
65.11500 70.000
66.31500 63.000
67.51500 61.000
68.71500 70.000
69.91500 62.000
71.11500 51.000
72.31500 64.000
73.51500 60.000
74.71500 79.000
75.91500 62.000
77.11500 65.000
78.31500 62.000
79.51500 74.000
80.71500 63.000
81.91500 49.000
83.11500 66.000
84.31500 60.000
85.51500 76.000
86.71500 54.000
87.91500 68.000
89.11500 58.000
90.31500 55.000
91.51500 53.000
92.71500 72.000
93.91500 56.000
95.11500 52.000
96.31500 51.000
97.51500 59.000
98.71500 73.000
99.91500 73.000
101.115 59.000
102.315 62.000
103.515 59.000
104.715 63.000
105.915 57.000
107.115 70.000
108.315 60.000
109.515 59.000
110.715 49.000
111.915 53.000
113.115 59.000
114.315 56.000
115.515 56.000
116.715 61.000
117.915 52.000
119.115 73.000
120.315 77.000
121.515 70.000
122.715 58.000
123.915 55.000
125.115 58.000
126.315 64.000
127.515 73.000
128.715 63.000
129.915 52.000
131.115 64.000
132.315 68.000
133.515 62.000
134.715 70.000
135.915 59.000
137.115 42.000
138.315 61.000
139.515 56.000
140.715 52.000
141.915 52.000
143.115 57.000
144.315 73.000
145.515 66.000
146.715 58.000
147.915 57.000
149.115 56.000
150.315 61.000
151.515 70.000
152.715 53.000
153.915 66.000
155.115 48.000
156.315 74.000
157.515 54.000
158.715 69.000
159.915 61.000
161.115 53.000
162.315 69.000
163.515 74.000
164.715 55.000
165.915 54.000
167.115 72.000
168.315 63.000
169.515 61.000
170.715 65.000
171.915 60.000
173.115 65.000
174.315 63.000
175.515 50.000
176.715 54.000
177.915 54.000
179.115 54.000
180.315 51.000
181.515 41.000
182.715 41.000
183.915 48.000
185.115 43.000
186.315 32.000
187.515 27.000
188.715 22.000
189.915 26.000
191.115 26.000
192.315 20.000
193.515 32.000
194.715 28.000
195.915 30.000
197.115 30.000
198.315 25.000
199.515 40.000
200.715 32.000
201.915 44.000
203.115 26.000
204.315 32.000
205.515 43.000
206.715 35.000
207.915 51.000
209.115 48.000
210.315 43.000
211.515 61.000
212.715 69.000
213.915 52.000
215.115 70.000
216.315 65.000
217.515 70.000
218.715 61.000
219.915 72.000
221.115 67.000
222.315 59.000
223.515 75.000
224.715 55.000
225.915 57.000
227.115 62.000
228.315 54.000
229.515 58.000
230.715 56.000
231.915 57.000
233.115 69.000
234.215 52.000