Folder: DataAnalysis/data/W6723/XRD_2ThetaOmega

Note: data/W6723/XRD_2ThetaOmega/W6723_peaks.TXT
No.	Label	Pos. [°2Th.]	FWHM Left [°2Th.]	Area [cts*°2Th.]	Backgr.[cts]	d-spacing [Å]	Height [cts]	Shape Left	Status	Integral Breadth [°2Th.]	FWHM Right [°2Th.]	Shape Right	Obs. Lorentz B [°2Th.]	Obs. Gauss B [°2Th.]	Instr. Lorentz B [°2Th.]	Instr. Gauss B [°2Th.]	Crystallite Size [Å]	Micro Strain [%]	Crystallite Size only [Å]	Micro Strain only [%]
1	Cr2O3 3 0 0	64,7398(1)	0,2915(3)	3524,27	632,41	1,43878	9523(18)	0,501(2)	Included	0,370070	 	 	0,200213	0,228512	0,077396	0,065568	850,932100	0,150682	344,163400	0,209026
2	Al2O3 3 0 0	68,151020(9)	0,06406(2)	52372,07	868,44	1,37483	642504(145)	0,5070(4)	Included	0,081512	 	 	0,044548	0,049981	0,078467	0,066475	-3141,845000	-0,028271	33695,800000	0,002040

Note: README.md
# Methods
## RSM analysis

Check out [doc](documentation/RSM.md)

File: W6723_absolute_2th-om_10-100deg.xy
10.0045 25.0
10.3048 26.0
10.6052 24.0
10.9055 27.0
11.2059 21.0
11.5062 13.0
11.8066 18.0
12.1069 17.0
12.4073 17.0
12.7077 11.0
13.008 17.0
13.3084 23.0
13.6087 9.0
13.9091 14.0
14.2094 22.0
14.5098 19.0
14.8101 13.0
15.1105 16.0
15.4109 11.0
15.7112 10.0
16.0116 10.0
16.3119 10.0
16.6123 18.0
16.9126 17.0
17.213 17.0
17.5133 11.0
17.8137 12.0
18.1141 10.0
18.4144 10.0
18.7148 8.0
19.0151 11.0
19.3155 12.0
19.6158 13.0
19.9162 7.0
20.2165 1.0
20.5169 11.0
20.8172 7.0
21.1176 12.0
21.418 9.0
21.7183 6.0
22.0187 0.0
22.319 9.0
22.6194 4.0
22.9197 8.0
23.2201 6.0
23.5204 5.0
23.8208 4.0
24.1212 4.0
24.4215 7.0
24.7219 3.0
25.0222 12.0
25.3226 5.0
25.6229 6.0
25.9233 6.0
26.2236 7.0
26.524 8.0
26.8244 4.0
27.1247 6.0
27.4251 6.0
27.7254 1.0
28.0258 2.0
28.3261 2.0
28.6265 2.0
28.9268 6.0
29.2272 1.0
29.5276 1.0
29.8279 3.0
30.1283 5.0
30.4286 4.0
30.729 7.0
31.0293 4.0
31.3297 11.0
31.63 5.0
31.9304 3.0
32.2307 5.0
32.5311 3.0
32.8315 5.0
33.1318 4.0
33.4322 8.0
33.7325 6.0
34.0329 5.0
34.3332 6.0
34.6336 5.0
34.9339 1.0
35.2343 4.0
35.5347 4.0
35.835 3.0
36.1354 4.0
36.4357 2.0
36.7361 3.0
37.0364 1.0
37.3368 7.0
37.6371 1.0
37.9375 7.0
38.2379 2.0
38.5382 2.0
38.8386 2.0
39.1389 3.0
39.4393 1.0
39.7396 2.0
40.04 4.0
40.3403 2.0
40.6407 1.0
40.941 0.0
41.2414 2.0
41.5418 3.0
41.8421 2.0
42.1425 1.0
42.4428 0.0
42.7432 3.0
43.0435 2.0
43.3439 3.0
43.6442 2.0
43.9446 2.0
44.245 4.0
44.5453 1.0
44.8457 2.0
45.146 4.0
45.4464 3.0
45.7467 5.0
46.0471 0.0
46.3474 0.0
46.6478 6.0
46.9482 4.0
47.2485 1.0
47.5489 2.0
47.8492 3.0
48.1496 4.0
48.4499 4.0
48.7503 0.0
49.0506 3.0
49.351 6.0
49.6514 2.0
49.9517 1.0
50.2521 1.0
50.5524 1.0
50.8528 0.0
51.1531 1.0
51.4535 2.0
51.7538 2.0
52.0542 1.0
52.3545 2.0
52.6549 0.0
52.9553 2.0
53.2556 4.0
53.556 4.0
53.8563 7.0
54.1567 1.0
54.457 1.0
54.7574 6.0
55.0577 5.0
55.3581 2.0
55.6585 4.0
55.9588 2.0
56.2592 5.0
56.5595 2.0
56.8599 2.0
57.1602 5.0
57.4606 2.0
57.7609 3.0
58.0613 1.0
58.3617 2.0
58.662 1.0
58.9624 3.0
59.2627 2.0
59.5631 4.0
59.8634 8.0
60.1638 1.0
60.4641 6.0
60.7645 17.0
61.0648 4.0
61.3652 3.0
61.6656 5.0
61.9659 10.0
62.2663 4.0
62.5666 8.0
62.867 7.0
63.1673 6.0
63.4677 8.0
63.768 18.0
64.0684 15.0
64.3688 46.0
64.6691 132.0
64.9695 334.0
65.2698 22.0
65.5702 28.0
65.8705 16.0
66.1709 11.0
66.4712 20.0
66.7716 21.0
67.072 46.0
67.3723 54.0
67.6727 127.0
67.973 551.0
68.2734 2432.0
68.5737 350.0
68.8741 111.0
69.1744 64.0
69.4748 36.0
69.7752 26.0
70.0755 18.0
70.3759 15.0
70.6762 12.0
70.9766 15.0
71.2769 5.0
71.5773 6.0
71.8776 4.0
72.178 2.0
72.4783 5.0
72.7787 5.0
73.0791 4.0
73.3794 4.0
73.6798 6.0
73.9801 2.0
74.2805 2.0
74.5808 5.0
74.8812 0.0
75.1815 1.0
75.4819 9.0
75.7823 0.0
76.0826 0.0
76.383 2.0
76.6833 1.0
76.9837 2.0
77.284 0.0
77.5844 1.0
77.8847 2.0
78.1851 2.0
78.4855 2.0
78.7858 4.0
79.0862 3.0
79.3865 0.0
79.6869 3.0
79.9872 2.0
80.2876 2.0
80.5879 0.0
80.8883 4.0
81.1886 6.0
81.489 0.0
81.7894 0.0
82.0897 3.0
82.3901 0.0
82.6904 2.0
82.9908 0.0
83.2911 0.0
83.5915 0.0
83.8918 1.0
84.1922 0.0
84.4926 0.0
84.7929 2.0
85.0933 1.0
85.3936 2.0
85.694 1.0
85.9943 2.0
86.2947 2.0
86.595 2.0
86.8954 3.0
87.1958 5.0
87.4961 1.0
87.7965 3.0
88.0968 2.0
88.3972 0.0
88.6975 0.0
88.9979 4.0
89.2982 1.0
89.5986 0.0
89.8989 3.0
90.1993 2.0
90.4997 0.0
90.8 2.0
91.1004 0.0
91.4007 1.0
91.7011 2.0
92.0014 3.0
92.3018 0.0
92.6021 3.0
92.9025 1.0
93.2029 1.0
93.5032 0.0
93.8036 0.0
94.1039 1.0
94.4043 3.0
94.7046 2.0
95.005 2.0
95.3053 3.0
95.6057 1.0
95.9061 1.0
96.2064 0.0
96.5068 1.0
96.8071 4.0
97.1075 0.0
97.4078 0.0
97.7082 0.0
98.0085 0.0
98.3089 2.0
98.6093 0.0
98.9096 2.0
99.21 4.0
99.5103 0.0
99.8107 2.0
99.9978 2.0

File: W6723_absolute_2th-om_58-72deg-20min_3.xy
58.0028 323.0
58.0496 327.0
58.0964 317.0
58.1432 295.0
58.1899 305.0
58.2367 263.0
58.2835 277.0
58.3303 288.0
58.377 299.0
58.4238 279.0
58.4706 283.0
58.5174 308.0
58.5642 262.0
58.6109 279.0
58.6577 314.0
58.7045 283.0
58.7513 294.0
58.798 297.0
58.8448 289.0
58.8916 299.0
58.9384 268.0
58.9851 280.0
59.0319 274.0
59.0787 285.0
59.1255 282.0
59.1722 289.0
59.219 275.0
59.2658 267.0
59.3126 288.0
59.3594 273.0
59.4061 306.0
59.4529 285.0
59.4997 273.0
59.5465 298.0
59.5932 283.0
59.64 296.0
59.6868 279.0
59.7336 277.0
59.7803 250.0
59.8271 275.0
59.8739 271.0
59.9207 282.0
59.9674 297.0
60.0142 323.0
60.061 324.0
60.1078 352.0
60.1546 307.0
60.2013 305.0
60.2481 322.0
60.2949 316.0
60.3417 313.0
60.3884 306.0
60.4352 311.0
60.482 283.0
60.5288 307.0
60.5755 320.0
60.6223 321.0
60.6691 356.0
60.7159 390.0
60.7627 676.0
60.8094 2073.0
60.8562 2028.0
60.903 1231.0
60.9498 764.0
60.9965 482.0
61.0433 390.0
61.0901 415.0
61.1369 381.0
61.1836 353.0
61.2304 308.0
61.2772 369.0
61.324 343.0
61.3707 371.0
61.4175 354.0
61.4643 371.0
61.5111 384.0
61.5579 350.0
61.6046 378.0
61.6514 442.0
61.6982 452.0
61.745 440.0
61.7917 440.0
61.8385 408.0
61.8853 418.0
61.9321 365.0
61.9788 365.0
62.0256 371.0
62.0724 362.0
62.1192 343.0
62.166 378.0
62.2127 375.0
62.2595 369.0
62.3063 371.0
62.3531 407.0
62.3998 326.0
62.4466 306.0
62.4934 348.0
62.5402 372.0
62.5869 372.0
62.6337 343.0
62.6805 341.0
62.7273 363.0
62.774 359.0
62.8208 373.0
62.8676 339.0
62.9144 378.0
62.9612 387.0
63.0079 380.0
63.0547 365.0
63.1015 361.0
63.1483 395.0
63.195 393.0
63.2418 388.0
63.2886 377.0
63.3354 439.0
63.3821 436.0
63.4289 413.0
63.4757 402.0
63.5225 416.0
63.5693 453.0
63.616 481.0
63.6628 488.0
63.7096 497.0
63.7564 570.0
63.8031 482.0
63.8499 559.0
63.8967 547.0
63.9435 613.0
63.9902 640.0
64.037 695.0
64.0838 756.0
64.1306 795.0
64.1773 917.0
64.2241 1003.0
64.2709 1199.0
64.3177 1337.0
64.3645 1551.0
64.4112 1943.0
64.458 2309.0
64.5048 2984.0
64.5516 4055.0
64.5983 5931.0
64.6451 8179.0
64.6919 10269.0
64.7387 11308.0
64.7854 11101.0
64.8322 9978.0
64.879 9613.0
64.9258 10726.0
64.9725 9368.0
65.0193 5503.0
65.0661 3579.0
65.1129 2427.0
65.1597 1835.0
65.2064 1528.0
65.2532 1247.0
65.3 1028.0
65.3468 945.0
65.3935 869.0
65.4403 1017.0
65.4871 1488.0
65.5339 1082.0
65.5806 905.0
65.6274 656.0
65.6742 670.0
65.721 613.0
65.7678 611.0
65.8145 574.0
65.8613 587.0
65.9081 593.0
65.9549 585.0
66.0016 569.0
66.0484 583.0
66.0952 642.0
66.142 678.0
66.1887 620.0
66.2355 608.0
66.2823 598.0
66.3291 630.0
66.3758 658.0
66.4226 682.0
66.4694 662.0
66.5162 681.0
66.563 711.0
66.6097 679.0
66.6565 737.0
66.7033 738.0
66.7501 827.0
66.7968 854.0
66.8436 906.0
66.8904 892.0
66.9372 887.0
66.9839 958.0
67.0307 921.0
67.0775 1037.0
67.1243 1055.0
67.1711 1136.0
67.2178 1195.0
67.2646 1303.0
67.3114 1363.0
67.3582 1379.0
67.4049 1530.0
67.4517 1566.0
67.4985 1697.0
67.5453 1871.0
67.592 2073.0
67.6388 2180.0
67.6856 2670.0
67.7324 3705.0
67.7791 5532.0
67.8259 6972.0
67.8727 7157.0
67.9195 7049.0
67.9663 9136.0
68.013 14647.0
68.0598 31756.0
68.1066 166842.0
68.1534 683061.0
68.2001 145415.0
68.2469 40499.0
68.2937 80034.0
68.3405 344379.0
68.3872 108136.0
68.434 22469.0
68.4808 11276.0
68.5276 7775.0
68.5743 5926.0
68.6211 4694.0
68.6679 3967.0
68.7147 3379.0
68.7615 3008.0
68.8082 2806.0
68.855 2326.0
68.9018 2232.0
68.9486 2084.0
68.9953 1969.0
69.0421 1798.0
69.0889 1666.0
69.1357 1648.0
69.1824 1545.0
69.2292 1490.0
69.276 1368.0
69.3228 1363.0
69.3696 1319.0
69.4163 1252.0
69.4631 1169.0
69.5099 1057.0
69.5567 1056.0
69.6034 972.0
69.6502 964.0
69.697 938.0
69.7438 937.0
69.7905 861.0
69.8373 851.0
69.8841 759.0
69.9309 793.0
69.9776 729.0
70.0244 724.0
70.0712 720.0
70.118 623.0
70.1648 608.0
70.2115 637.0
70.2583 624.0
70.3051 614.0
70.3519 587.0
70.3986 508.0
70.4454 585.0
70.4922 563.0
70.539 568.0
70.5857 520.0
70.6325 503.0
70.6793 564.0
70.7261 484.0
70.7729 468.0
70.8196 456.0
70.8664 459.0
70.9132 455.0
70.96 445.0
71.0067 425.0
71.0535 439.0
71.1003 431.0
71.1471 423.0
71.1938 441.0
71.2406 389.0
71.2874 421.0
71.3342 383.0
71.3809 396.0
71.4277 395.0
71.4745 376.0
71.5213 408.0
71.5681 412.0
71.6148 353.0
71.6616 363.0
71.7084 362.0
71.7552 352.0
71.8019 396.0
71.8487 389.0
71.8955 375.0
71.9423 365.0
71.989 393.0
71.9989 348.0