Folder: DataAnalysis/data/W6723/XRD_Omega

Note: data/W6723/XRD_Omega/W6723_omega_peaks.TXT
No.	Label	Pos. [記mega]	FWHM Left [記mega]	Area [cts*記mega]	Backgr.[cts]	d-spacing [魔	Height [cts]	Shape Left	Status	Integral Breadth [記mega]	FWHM Right [記mega]	Shape Right	Obs. Lorentz B [記mega]	Obs. Gauss B [記mega]	Instr. Lorentz B [記mega]	Instr. Gauss B [記mega]	Crystallite Size [魔	Micro Strain [%]	Crystallite Size only [魔	Micro Strain only [%]
1	Cr2O3 3 0 0	32,8489(3)	0,521(1)	2824,54	1342,26	 	4745(20)	0,215(8)	Included	0,595282	 	 	0,144733	0,498001	0,074045	0,062727	1301,844000	0,731269	170,470400	0,799055

Note: README.md
# Methods
## RSM analysis

Check out [doc](documentation/RSM.md)

File: W6723_Cr2O3_scan_omega_2deg_step_0.002deg0_3.xy
31.88510 523.0
31.89310 494.0
31.90110 502.0
31.90910 534.0
31.91710 545.0
31.92510 603.0
31.93310 577.0
31.94110 573.0
31.94910 596.0
31.95710 600.0
31.96510 638.0
31.97310 612.0
31.98110 611.0
31.98910 682.0
31.99710 651.0
32.00510 724.0
32.01310 759.0
32.02110 752.0
32.02910 793.0
32.03710 769.0
32.04510 800.0
32.05310 801.0
32.06110 894.0
32.06910 883.0
32.07710 858.0
32.08510 907.0
32.09310 917.0
32.10110 950.0
32.10910 915.0
32.11710 944.0
32.12510 1024.0
32.13310 996.0
32.14110 1043.0
32.14910 1050.0
32.15710 1079.0
32.16510 1082.0
32.17310 1106.0
32.18110 1184.0
32.18910 1160.0
32.19710 1263.0
32.20510 1184.0
32.21310 1244.0
32.22110 1318.0
32.22910 1329.0
32.23710 1370.0
32.24510 1381.0
32.25310 1425.0
32.26110 1482.0
32.26910 1469.0
32.27710 1588.0
32.28510 1650.0
32.29310 1647.0
32.30110 1658.0
32.30910 1747.0
32.31710 1795.0
32.32510 1839.0
32.33310 1860.0
32.34110 1882.0
32.34910 1947.0
32.35710 2016.0
32.36510 2018.0
32.37310 2142.0
32.38110 2151.0
32.38910 2249.0
32.39710 2317.0
32.40510 2318.0
32.41310 2374.0
32.42110 2436.0
32.42910 2588.0
32.43710 2564.0
32.44510 2650.0
32.45310 2859.0
32.46110 2780.0
32.46910 2924.0
32.47710 3053.0
32.48510 3202.0
32.49310 3159.0
32.50110 3250.0
32.50910 3376.0
32.51710 3444.0
32.52510 3560.0
32.53310 3652.0
32.54110 3724.0
32.54910 3914.0
32.55710 3896.0
32.56510 4272.0
32.57310 4175.0
32.58110 4324.0
32.58910 4399.0
32.59710 4535.0
32.60510 4679.0
32.61310 4707.0
32.62110 4942.0
32.62910 5243.0
32.63710 5206.0
32.64510 5472.0
32.65310 5516.0
32.66110 5532.0
32.66910 5659.0
32.67710 5807.0
32.68510 6130.0
32.69310 6295.0
32.70110 6324.0
32.70910 6489.0
32.71710 6574.0
32.72510 6809.0
32.73310 6800.0
32.74110 7047.0
32.74910 7108.0
32.75710 7380.0
32.76510 7216.0
32.77310 7368.0
32.78110 7432.0
32.78910 7614.0
32.79710 8004.0
32.80510 8076.0
32.81310 8111.0
32.82110 8115.0
32.82910 8356.0
32.83710 8467.0
32.84510 8225.0
32.85310 8310.0
32.86110 8104.0
32.86910 8279.0
32.87710 8218.0
32.88510 8370.0
32.89310 8316.0
32.90110 8541.0
32.90910 8356.0
32.91710 8235.0
32.92510 8184.0
32.93310 8228.0
32.94110 8039.0
32.94910 7866.0
32.95710 7800.0
32.96510 7809.0
32.97310 7702.0
32.98110 7810.0
32.98910 7469.0
32.99710 7220.0
33.00510 7072.0
33.01310 6940.0
33.02110 6840.0
33.02910 6840.0
33.03710 6446.0
33.04510 6379.0
33.05310 6230.0
33.06110 6131.0
33.06910 6119.0
33.07710 5624.0
33.08510 5494.0
33.09310 5329.0
33.10110 5195.0
33.10910 5048.0
33.11710 4857.0
33.12510 4760.0
33.13310 4704.0
33.14110 4541.0
33.14910 4374.0
33.15710 4254.0
33.16510 4125.0
33.17310 3986.0
33.18110 3814.0
33.18910 3781.0
33.19710 3661.0
33.20510 3501.0
33.21310 3344.0
33.22110 3284.0
33.22910 3136.0
33.23710 2961.0
33.24510 2984.0
33.25310 2859.0
33.26110 2689.0
33.26910 2503.0
33.27710 2412.0
33.28510 2408.0
33.29310 2194.0
33.30110 2184.0
33.30910 2158.0
33.31710 2034.0
33.32510 1931.0
33.33310 1832.0
33.34110 1877.0
33.34910 1744.0
33.35710 1694.0
33.36510 1590.0
33.37310 1580.0
33.38110 1589.0
33.38910 1490.0
33.39710 1433.0
33.40510 1413.0
33.41310 1401.0
33.42110 1275.0
33.42910 1240.0
33.43710 1204.0
33.44510 1118.0
33.45310 1123.0
33.46110 1128.0
33.46910 1105.0
33.47710 1080.0
33.48510 1088.0
33.49310 1001.0
33.50110 946.0
33.50910 939.0
33.51710 893.0
33.52510 885.0
33.53310 870.0
33.54110 872.0
33.54910 793.0
33.55710 838.0
33.56510 718.0
33.57310 786.0
33.58110 678.0
33.58910 735.0
33.59710 742.0
33.60510 662.0
33.61310 683.0
33.62110 720.0
33.62910 597.0
33.63710 611.0
33.64510 591.0
33.65310 592.0
33.66110 549.0
33.66910 579.0
33.67710 524.0
33.68510 529.0
33.69310 528.0
33.70110 484.0
33.70910 522.0
33.71710 494.0
33.72510 467.0
33.73310 430.0
33.74110 475.0
33.74910 429.0
33.75710 440.0
33.76510 405.0
33.77310 432.0
33.78110 401.0
33.78910 409.0
33.79710 414.0
33.80510 398.0
33.81310 384.0
33.82110 353.0
33.82910 390.0
33.83710 398.0
33.84510 372.0
33.85310 330.0
33.86110 328.0
33.86910 318.0