Folder: DataAnalysis/data/a-Al2O3/XRD_2ThetaOmega

Note: README.md
# Methods
## RSM analysis

Check out [doc](documentation/RSM.md)

File: scan_2th-om_a_Cr2O3_30-40deg_PIXscan_4min.xy
30.0025 46.0
30.0369 43.0
30.0714 44.0
30.1059 45.0
30.1403 57.0
30.1748 64.0
30.2093 51.0
30.2437 64.0
30.2782 59.0
30.3127 48.0
30.3471 49.0
30.3816 52.0
30.4161 56.0
30.4505 74.0
30.485 47.0
30.5195 60.0
30.5539 62.0
30.5884 52.0
30.6229 50.0
30.6573 53.0
30.6918 53.0
30.7263 62.0
30.7607 57.0
30.7952 57.0
30.8297 51.0
30.8641 53.0
30.8986 55.0
30.9331 60.0
30.9675 51.0
31.002 69.0
31.0365 63.0
31.0709 57.0
31.1054 60.0
31.1399 58.0
31.1743 57.0
31.2088 75.0
31.2433 47.0
31.2777 44.0
31.3122 47.0
31.3467 47.0
31.3811 59.0
31.4156 43.0
31.4501 34.0
31.4845 52.0
31.519 50.0
31.5535 57.0
31.5879 54.0
31.6224 42.0
31.6569 57.0
31.6913 46.0
31.7258 56.0
31.7603 54.0
31.7947 59.0
31.8292 50.0
31.8637 45.0
31.8981 61.0
31.9326 40.0
31.9671 54.0
32.0015 59.0
32.036 51.0
32.0705 43.0
32.1049 72.0
32.1394 48.0
32.1739 53.0
32.2083 53.0
32.2428 63.0
32.2773 44.0
32.3118 59.0
32.3462 43.0
32.3807 62.0
32.4152 68.0
32.4496 58.0
32.4841 51.0
32.5186 56.0
32.553 56.0
32.5875 46.0
32.622 61.0
32.6564 50.0
32.6909 55.0
32.7254 49.0
32.7598 54.0
32.7943 51.0
32.8288 45.0
32.8632 57.0
32.8977 46.0
32.9322 51.0
32.9666 52.0
33.0011 51.0
33.0356 51.0
33.07 58.0
33.1045 38.0
33.139 49.0
33.1734 61.0
33.2079 63.0
33.2424 54.0
33.2768 60.0
33.3113 42.0
33.3458 50.0
33.3802 63.0
33.4147 59.0
33.4492 48.0
33.4836 53.0
33.5181 48.0
33.5526 68.0
33.587 48.0
33.6215 56.0
33.656 60.0
33.6904 44.0
33.7249 58.0
33.7594 49.0
33.7938 70.0
33.8283 66.0
33.8628 65.0
33.8972 90.0
33.9317 161.0
33.9662 996.0
34.0006 308.0
34.0351 111.0
34.0696 77.0
34.104 64.0
34.1385 63.0
34.173 67.0
34.2074 64.0
34.2419 62.0
34.2764 63.0
34.3108 43.0
34.3453 52.0
34.3798 52.0
34.4142 65.0
34.4487 51.0
34.4832 66.0
34.5176 57.0
34.5521 53.0
34.5866 60.0
34.621 55.0
34.6555 58.0
34.69 54.0
34.7244 65.0
34.7589 56.0
34.7934 59.0
34.8278 68.0
34.8623 62.0
34.8968 64.0
34.9312 72.0
34.9657 64.0
35.0002 63.0
35.0346 63.0
35.0691 55.0
35.1036 65.0
35.138 63.0
35.1725 58.0
35.207 53.0
35.2414 78.0
35.2759 58.0
35.3104 66.0
35.3448 63.0
35.3793 63.0
35.4138 71.0
35.4482 67.0
35.4827 54.0
35.5172 58.0
35.5516 56.0
35.5861 71.0
35.6206 49.0
35.655 51.0
35.6895 57.0
35.724 47.0
35.7584 65.0
35.7929 61.0
35.8274 61.0
35.8619 63.0
35.8963 65.0
35.9308 66.0
35.9653 57.0
35.9997 70.0
36.0342 68.0
36.0687 86.0
36.1031 90.0
36.1376 77.0
36.1721 90.0
36.2065 61.0
36.241 60.0
36.2755 89.0
36.3099 81.0
36.3444 70.0
36.3789 87.0
36.4133 100.0
36.4478 86.0
36.4823 73.0
36.5167 83.0
36.5512 112.0
36.5857 93.0
36.6201 108.0
36.6546 126.0
36.6891 116.0
36.7235 136.0
36.758 145.0
36.7925 134.0
36.8269 132.0
36.8614 145.0
36.8959 154.0
36.9303 169.0
36.9648 205.0
36.9993 197.0
37.0337 206.0
37.0682 210.0
37.1027 299.0
37.1371 292.0
37.1716 318.0
37.2061 287.0
37.2405 351.0
37.275 390.0
37.3095 418.0
37.3439 468.0
37.3784 521.0
37.4129 602.0
37.4473 689.0
37.4818 823.0
37.5163 1441.0
37.5507 2515.0
37.5852 2668.0
37.6197 2832.0
37.6541 5728.0
37.6886 24289.0
37.7231 279739.0
37.7575 34506.0
37.792 25702.0
37.8265 133046.0
37.8609 12987.0
37.8954 3674.0
37.9299 2169.0
37.9643 1481.0
37.9988 1076.0
38.0333 924.0
38.0677 737.0
38.1022 623.0
38.1367 607.0
38.1711 528.0
38.2056 445.0
38.2401 373.0
38.2745 344.0
38.309 293.0
38.3435 287.0
38.3779 199.0
38.4124 172.0
38.4469 181.0
38.4813 153.0
38.5158 147.0
38.5503 157.0
38.5847 149.0
38.6192 130.0
38.6537 127.0
38.6881 117.0
38.7226 96.0
38.7571 101.0
38.7915 82.0
38.826 103.0
38.8605 94.0
38.8949 84.0
38.9294 91.0
38.9639 74.0
38.9983 73.0
39.0328 77.0
39.0673 92.0
39.1017 76.0
39.1362 91.0
39.1707 89.0
39.2051 68.0
39.2396 80.0
39.2741 60.0
39.3085 69.0
39.343 64.0
39.3775 71.0
39.412 69.0
39.4464 66.0
39.4809 92.0
39.5154 67.0
39.5498 78.0
39.5843 77.0
39.6188 73.0
39.6532 65.0
39.6877 72.0
39.7222 63.0
39.7566 51.0
39.7911 51.0
39.8256 64.0
39.86 64.0
39.8945 70.0
39.929 63.0
39.9634 66.0
39.9979 68.0