Folder: DataAnalysis/data/a-Al2O3/XRD_Omega

Note: README.md
# Methods
## RSM analysis

Check out [doc](documentation/RSM.md)

File: film_a_scan_omega_4deg_step_0.005deg0.xy
16.00000 24.0
16.01500 26.0
16.03000 35.0
16.04500 27.0
16.06000 24.0
16.07500 31.0
16.09000 45.0
16.10500 26.0
16.12000 31.0
16.13500 37.0
16.15000 29.0
16.16500 22.0
16.18000 27.0
16.19500 28.0
16.21000 29.0
16.22500 27.0
16.24000 28.0
16.25500 25.0
16.27000 23.0
16.28500 35.0
16.30000 20.0
16.31500 26.0
16.33000 33.0
16.34500 30.0
16.36000 36.0
16.37500 30.0
16.39000 25.0
16.40500 37.0
16.42000 31.0
16.43500 36.0
16.45000 38.0
16.46500 24.0
16.48000 34.0
16.49500 29.0
16.51000 30.0
16.52500 33.0
16.54000 30.0
16.55500 29.0
16.57000 19.0
16.58500 39.0
16.60000 39.0
16.61500 32.0
16.63000 26.0
16.64500 32.0
16.66000 29.0
16.67500 39.0
16.69000 18.0
16.70500 26.0
16.72000 26.0
16.73500 31.0
16.75000 20.0
16.76500 30.0
16.78000 28.0
16.79500 33.0
16.81000 45.0
16.82500 30.0
16.84000 24.0
16.85500 30.0
16.87000 36.0
16.88500 21.0
16.90000 32.0
16.91500 31.0
16.93000 23.0
16.94500 21.0
16.96000 16.0
16.97500 33.0
16.99000 27.0
17.00500 27.0
17.02000 36.0
17.03500 43.0
17.05000 31.0
17.06500 36.0
17.08000 23.0
17.09500 42.0
17.11000 39.0
17.12500 26.0
17.14000 24.0
17.15500 32.0
17.17000 39.0
17.18500 26.0
17.20000 22.0
17.21500 31.0
17.23000 32.0
17.24500 29.0
17.26000 29.0
17.27500 32.0
17.29000 35.0
17.30500 35.0
17.32000 31.0
17.33500 28.0
17.35000 27.0
17.36500 25.0
17.38000 32.0
17.39500 30.0
17.41000 22.0
17.42500 24.0
17.44000 24.0
17.45500 32.0
17.47000 21.0
17.48500 39.0
17.50000 32.0
17.51500 20.0
17.53000 34.0
17.54500 23.0
17.56000 33.0
17.57500 27.0
17.59000 35.0
17.60500 28.0
17.62000 27.0
17.63500 30.0
17.65000 33.0
17.66500 27.0
17.68000 24.0
17.69500 32.0
17.71000 32.0
17.72500 27.0
17.74000 28.0
17.75500 30.0
17.77000 18.0
17.78500 46.0
17.80000 32.0
17.81500 31.0
17.83000 30.0
17.84500 32.0
17.86000 33.0
17.87500 32.0
17.89000 27.0
17.90500 26.0
17.92000 36.0
17.93500 38.0
17.95000 27.0
17.96500 21.0
17.98000 24.0
17.99500 23.0
18.01000 35.0
18.02500 17.0
18.04000 24.0
18.05500 28.0
18.07000 34.0
18.08500 44.0
18.10000 33.0
18.11500 35.0
18.13000 31.0
18.14500 25.0
18.16000 27.0
18.17500 27.0
18.19000 58.0
18.20500 43.0
18.22000 40.0
18.23500 54.0
18.25000 40.0
18.26500 60.0
18.28000 49.0
18.29500 58.0
18.31000 48.0
18.32500 67.0
18.34000 67.0
18.35500 76.0
18.37000 124.0
18.38500 126.0
18.40000 85.0
18.41500 106.0
18.43000 85.0
18.44500 75.0
18.46000 49.0
18.47500 34.0
18.49000 30.0
18.50500 38.0
18.52000 36.0
18.53500 29.0
18.55000 28.0
18.56500 25.0
18.58000 22.0
18.59500 30.0
18.61000 26.0
18.62500 25.0
18.64000 24.0
18.65500 26.0
18.67000 33.0
18.68500 27.0
18.70000 25.0
18.71500 34.0
18.73000 23.0
18.74500 33.0
18.76000 23.0
18.77500 36.0
18.79000 26.0
18.80500 25.0
18.82000 27.0
18.83500 27.0
18.85000 25.0
18.86500 35.0
18.88000 22.0
18.89500 31.0
18.91000 35.0
18.92500 40.0
18.94000 25.0
18.95500 26.0
18.97000 39.0
18.98500 23.0
19.00000 33.0
19.01500 24.0
19.03000 27.0
19.04500 30.0
19.06000 30.0
19.07500 25.0
19.09000 31.0
19.10500 41.0
19.12000 27.0
19.13500 26.0
19.15000 30.0
19.16500 41.0
19.18000 25.0
19.19500 34.0
19.21000 27.0
19.22500 27.0
19.24000 17.0
19.25500 23.0
19.27000 29.0
19.28500 23.0
19.30000 29.0
19.31500 27.0
19.33000 38.0
19.34500 23.0
19.36000 26.0
19.37500 30.0
19.39000 31.0
19.40500 37.0
19.42000 30.0
19.43500 32.0
19.45000 21.0
19.46500 28.0
19.48000 27.0
19.49500 26.0
19.51000 28.0
19.52500 32.0
19.54000 20.0
19.55500 30.0
19.57000 34.0
19.58500 27.0
19.60000 26.0
19.61500 22.0
19.63000 21.0
19.64500 32.0
19.66000 25.0
19.67500 26.0
19.69000 33.0
19.70500 32.0
19.72000 24.0
19.73500 25.0
19.75000 32.0
19.76500 38.0
19.78000 32.0
19.79500 24.0
19.81000 32.0
19.82500 24.0
19.84000 29.0
19.85500 36.0
19.87000 37.0
19.88500 19.0
19.90000 43.0
19.91500 22.0
19.93000 26.0
19.94500 23.0
19.96000 23.0