Folder: DataAnalysis/data/w6931r/XRD_2ThetaOmega

Note: data/w6931r/XRD_2ThetaOmega/W6931r_peaks.TXT
No.	Label	Pos. [°2Th.]	FWHM Left [°2Th.]	Area [cts*°2Th.]	Backgr.[cts]	d-spacing [Å]	Height [cts]	Shape Left	Status	Integral Breadth [°2Th.]	FWHM Right [°2Th.]	Shape Right	Obs. Lorentz B [°2Th.]	Obs. Gauss B [°2Th.]	Instr. Lorentz B [°2Th.]	Instr. Gauss B [°2Th.]	Crystallite Size [Å]	Micro Strain [%]	Crystallite Size only [Å]	Micro Strain only [%]
1	Cr2O3 0 2 4	49,9065(5)	0,341(1)	502,26	147,37	1,82588	1383(6)	0,00(1)	Included	0,363064	 	 	0,000888	0,363064	0,074532	0,063142	-1322,008000	0,335263	272,275200	0,335300
2	Al2O3 0 2 4	52,49150(1)	0,03847(3)	13408,12	191,10	1,74188	265922(220)	0,583(1)	Included	0,050421	 	 	0,031296	0,027900	0,074845	0,063407	-2259,897000	-0,050389	31118,350000	0,002799

Note: README.md
# Methods
## RSM analysis

Check out [doc](documentation/RSM.md)

File: scan_2th-om_r2_Cr2O3_45-55deg_PIXscan_5min.xy
45.0025 69.0
45.0369 67.0
45.0714 51.0
45.1059 69.0
45.1403 70.0
45.1748 54.0
45.2093 56.0
45.2437 56.0
45.2782 63.0
45.3127 57.0
45.3471 66.0
45.3816 56.0
45.4161 62.0
45.4505 70.0
45.485 59.0
45.5195 63.0
45.5539 45.0
45.5884 67.0
45.6229 61.0
45.6573 61.0
45.6918 73.0
45.7263 48.0
45.7607 66.0
45.7952 77.0
45.8297 70.0
45.8641 76.0
45.8986 63.0
45.9331 48.0
45.9675 54.0
46.002 64.0
46.0365 56.0
46.0709 60.0
46.1054 56.0
46.1399 57.0
46.1743 55.0
46.2088 67.0
46.2433 49.0
46.2777 66.0
46.3122 68.0
46.3467 61.0
46.3811 60.0
46.4156 44.0
46.4501 58.0
46.4845 52.0
46.519 53.0
46.5535 59.0
46.5879 52.0
46.6224 54.0
46.6569 70.0
46.6913 81.0
46.7258 87.0
46.7603 63.0
46.7947 64.0
46.8292 62.0
46.8637 79.0
46.8981 86.0
46.9326 75.0
46.9671 53.0
47.0015 83.0
47.036 119.0
47.0705 389.0
47.1049 935.0
47.1394 319.0
47.1739 202.0
47.2083 116.0
47.2428 83.0
47.2773 73.0
47.3118 73.0
47.3462 67.0
47.3807 92.0
47.4152 65.0
47.4496 62.0
47.4841 90.0
47.5186 85.0
47.553 69.0
47.5875 57.0
47.622 77.0
47.6564 64.0
47.6909 74.0
47.7254 91.0
47.7598 75.0
47.7943 85.0
47.8288 77.0
47.8632 74.0
47.8977 67.0
47.9322 73.0
47.9666 71.0
48.0011 78.0
48.0356 66.0
48.07 71.0
48.1045 79.0
48.139 80.0
48.1734 81.0
48.2079 81.0
48.2424 80.0
48.2768 73.0
48.3113 82.0
48.3458 64.0
48.3802 66.0
48.4147 59.0
48.4492 71.0
48.4836 76.0
48.5181 85.0
48.5526 80.0
48.587 88.0
48.6215 69.0
48.656 77.0
48.6904 77.0
48.7249 68.0
48.7594 84.0
48.7938 77.0
48.8283 84.0
48.8628 81.0
48.8972 95.0
48.9317 85.0
48.9662 74.0
49.0006 88.0
49.0351 97.0
49.0696 81.0
49.104 96.0
49.1385 132.0
49.173 98.0
49.2074 119.0
49.2419 94.0
49.2764 122.0
49.3108 134.0
49.3453 127.0
49.3798 157.0
49.4142 151.0
49.4487 168.0
49.4832 184.0
49.5176 229.0
49.5521 266.0
49.5866 319.0
49.621 413.0
49.6555 495.0
49.69 609.0
49.7244 766.0
49.7589 1007.0
49.7934 1239.0
49.8278 1499.0
49.8623 1832.0
49.8968 2043.0
49.9312 2152.0
49.9657 2139.0
50.0002 1975.0
50.0346 1771.0
50.0691 1515.0
50.1036 1276.0
50.138 1051.0
50.1725 763.0
50.207 627.0
50.2414 475.0
50.2759 389.0
50.3104 343.0
50.3448 275.0
50.3793 238.0
50.4138 226.0
50.4482 205.0
50.4827 140.0
50.5172 159.0
50.5516 142.0
50.5861 172.0
50.6206 138.0
50.655 119.0
50.6895 140.0
50.724 120.0
50.7584 111.0
50.7929 98.0
50.8274 120.0
50.8619 122.0
50.8963 127.0
50.9308 135.0
50.9653 126.0
50.9997 127.0
51.0342 136.0
51.0687 120.0
51.1031 139.0
51.1376 148.0
51.1721 134.0
51.2065 137.0
51.241 128.0
51.2755 172.0
51.3099 168.0
51.3444 166.0
51.3789 165.0
51.4133 173.0
51.4478 203.0
51.4823 199.0
51.5167 194.0
51.5512 205.0
51.5857 190.0
51.6201 200.0
51.6546 269.0
51.6891 291.0
51.7235 262.0
51.758 262.0
51.7925 300.0
51.8269 292.0
51.8614 324.0
51.8959 345.0
51.9303 382.0
51.9648 443.0
51.9993 459.0
52.0337 491.0
52.0682 526.0
52.1027 606.0
52.1371 699.0
52.1716 901.0
52.2061 1405.0
52.2405 2140.0
52.275 2159.0
52.3095 2039.0
52.3439 2324.0
52.3784 3677.0
52.4129 7399.0
52.4473 24502.0
52.4818 233430.0
52.5163 87563.0
52.5507 15412.0
52.5852 15726.0
52.6197 102437.0
52.6541 58421.0
52.6886 9161.0
52.7231 3857.0
52.7575 2334.0
52.792 1708.0
52.8265 1251.0
52.8609 1075.0
52.8954 875.0
52.9299 814.0
52.9643 650.0
52.9988 515.0
53.0333 507.0
53.0677 461.0
53.1022 403.0
53.1367 363.0
53.1711 369.0
53.2056 348.0
53.2401 323.0
53.2745 286.0
53.309 287.0
53.3435 258.0
53.3779 226.0
53.4124 196.0
53.4469 177.0
53.4813 159.0
53.5158 144.0
53.5503 155.0
53.5847 145.0
53.6192 137.0
53.6537 102.0
53.6881 135.0
53.7226 136.0
53.7571 104.0
53.7915 116.0
53.826 105.0
53.8605 114.0
53.8949 96.0
53.9294 104.0
53.9639 114.0
53.9983 99.0
54.0328 101.0
54.0673 84.0
54.1017 105.0
54.1362 88.0
54.1707 102.0
54.2051 90.0
54.2396 79.0
54.2741 90.0
54.3085 80.0
54.343 108.0
54.3775 89.0
54.412 87.0
54.4464 80.0
54.4809 79.0
54.5154 64.0
54.5498 58.0
54.5843 83.0
54.6188 86.0
54.6532 83.0
54.6877 82.0
54.7222 80.0
54.7566 83.0
54.7911 62.0
54.8256 77.0
54.86 72.0
54.8945 69.0
54.929 85.0
54.9634 84.0
54.9979 87.0