Folder: DataAnalysis/data/w6931r/XRD_Omega

Note: data/w6931r/XRD_Omega/W6931r_omega_peaks.TXT
No.	Label	Pos. [記mega]	FWHM Left [記mega]	Area [cts*記mega]	Backgr.[cts]	d-spacing [魔	Height [cts]	Shape Left	Status	Integral Breadth [記mega]	FWHM Right [記mega]	Shape Right	Obs. Lorentz B [記mega]	Obs. Gauss B [記mega]	Instr. Lorentz B [記mega]	Instr. Gauss B [記mega]	Crystallite Size [魔	Micro Strain [%]	Crystallite Size only [魔	Micro Strain only [%]
1	Cr2O3 0 2 4	24,0506(7)	0,916(2)	1341,40	35,61	 	1276(3)	0,225(4)	Included	1,051148	 	 	0,266899	0,871393	0,074694	0,063275	469,552500	1,780190	90,683300	2,038551

Note: README.md
# Methods
## RSM analysis

Check out [doc](documentation/RSM.md)

File: film_r_scan_omega_4deg_step_0.005deg0.xy
22.11180 52.0
22.12680 37.0
22.14180 41.0
22.15680 33.0
22.17180 48.0
22.18680 47.0
22.20180 53.0
22.21680 44.0
22.23180 51.0
22.24680 45.0
22.26180 48.0
22.27680 66.0
22.29180 54.0
22.30680 37.0
22.32180 30.0
22.33680 64.0
22.35180 53.0
22.36680 54.0
22.38180 49.0
22.39680 43.0
22.41180 57.0
22.42680 65.0
22.44180 51.0
22.45680 61.0
22.47180 48.0
22.48680 59.0
22.50180 57.0
22.51680 55.0
22.53180 53.0
22.54680 76.0
22.56180 70.0
22.57680 77.0
22.59180 81.0
22.60680 70.0
22.62180 66.0
22.63680 77.0
22.65180 86.0
22.66680 67.0
22.68180 61.0
22.69680 78.0
22.71180 76.0
22.72680 84.0
22.74180 97.0
22.75680 98.0
22.77180 92.0
22.78680 82.0
22.80180 93.0
22.81680 96.0
22.83180 106.0
22.84680 118.0
22.86180 123.0
22.87680 109.0
22.89180 127.0
22.90680 103.0
22.92180 110.0
22.93680 142.0
22.95180 146.0
22.96680 150.0
22.98180 141.0
22.99680 170.0
23.01180 179.0
23.02680 169.0
23.04180 182.0
23.05680 211.0
23.07180 221.0
23.08680 227.0
23.10180 205.0
23.11680 234.0
23.13180 218.0
23.14680 237.0
23.16180 234.0
23.17680 252.0
23.19180 269.0
23.20680 298.0
23.22180 285.0
23.23680 292.0
23.25180 315.0
23.26680 329.0
23.28180 351.0
23.29680 364.0
23.31180 368.0
23.32680 409.0
23.34180 414.0
23.35680 441.0
23.37180 423.0
23.38680 477.0
23.40180 506.0
23.41680 542.0
23.43180 545.0
23.44680 567.0
23.46180 603.0
23.47680 626.0
23.49180 673.0
23.50680 655.0
23.52180 720.0
23.53680 737.0
23.55180 784.0
23.56680 852.0
23.58180 936.0
23.59680 813.0
23.61180 955.0
23.62680 999.0
23.64180 930.0
23.65680 1065.0
23.67180 1084.0
23.68680 1159.0
23.70180 1253.0
23.71680 1186.0
23.73180 1257.0
23.74680 1312.0
23.76180 1390.0
23.77680 1361.0
23.79180 1403.0
23.80680 1413.0
23.82180 1488.0
23.83680 1586.0
23.85180 1623.0
23.86680 1658.0
23.88180 1685.0
23.89680 1665.0
23.91180 1873.0
23.92680 1699.0
23.94180 1768.0
23.95680 2027.0
23.97180 1966.0
23.98680 1912.0
24.00180 2017.0
24.01680 2006.0
24.03180 2078.0
24.04680 2003.0
24.06180 1981.0
24.07680 2034.0
24.09180 2103.0
24.10680 2072.0
24.12180 2050.0
24.13680 2019.0
24.15180 1932.0
24.16680 1955.0
24.18180 1953.0
24.19680 1912.0
24.21180 1891.0
24.22680 1882.0
24.24180 1806.0
24.25680 1746.0
24.27180 1762.0
24.28680 1728.0
24.30180 1694.0
24.31680 1663.0
24.33180 1536.0
24.34680 1493.0
24.36180 1536.0
24.37680 1564.0
24.39180 1445.0
24.40680 1362.0
24.42180 1289.0
24.43680 1197.0
24.45180 1196.0
24.46680 1075.0
24.48180 1095.0
24.49680 998.0
24.51180 979.0
24.52680 950.0
24.54180 892.0
24.55680 858.0
24.57180 797.0
24.58680 836.0
24.60180 726.0
24.61680 689.0
24.63180 711.0
24.64680 582.0
24.66180 627.0
24.67680 611.0
24.69180 525.0
24.70680 521.0
24.72180 479.0
24.73680 491.0
24.75180 477.0
24.76680 421.0
24.78180 418.0
24.79680 398.0
24.81180 356.0
24.82680 374.0
24.84180 346.0
24.85680 345.0
24.87180 365.0
24.88680 359.0
24.90180 324.0
24.91680 301.0
24.93180 274.0
24.94680 205.0
24.96180 235.0
24.97680 211.0
24.99180 241.0
25.00680 199.0
25.02180 197.0
25.03680 174.0
25.05180 190.0
25.06680 143.0
25.08180 143.0
25.09680 136.0
25.11180 133.0
25.12680 137.0
25.14180 115.0
25.15680 106.0
25.17180 99.0
25.18680 89.0
25.20180 105.0
25.21680 111.0
25.23180 80.0
25.24680 95.0
25.26180 82.0
25.27680 103.0
25.29180 100.0
25.30680 78.0
25.32180 69.0
25.33680 85.0
25.35180 69.0
25.36680 87.0
25.38180 70.0
25.39680 77.0
25.41180 75.0
25.42680 84.0
25.44180 68.0
25.45680 53.0
25.47180 71.0
25.48680 69.0
25.50180 56.0
25.51680 58.0
25.53180 41.0
25.54680 52.0
25.56180 47.0
25.57680 48.0
25.59180 58.0
25.60680 51.0
25.62180 57.0
25.63680 49.0
25.65180 50.0
25.66680 60.0
25.68180 51.0
25.69680 53.0
25.71180 57.0
25.72680 33.0
25.74180 50.0
25.75680 43.0
25.77180 32.0
25.78680 41.0
25.80180 51.0
25.81680 52.0
25.83180 44.0
25.84680 36.0
25.86180 39.0
25.87680 37.0
25.89180 37.0
25.90680 41.0
25.92180 28.0
25.93680 39.0
25.95180 39.0
25.96680 42.0
25.98180 40.0
25.99680 47.0
26.01180 35.0
26.02680 25.0
26.04180 45.0
26.05680 37.0
26.07180 30.0