Folder: DataAnalysis/data/w6930c/XRD_Omega

Note: data/w6930c/XRD_Omega/W9030c_omega_peaks.TXT
No.	Label	Pos. [記mega]	FWHM Left [記mega]	Area [cts*記mega]	Backgr.[cts]	d-spacing [魔	Height [cts]	Shape Left	Status	Integral Breadth [記mega]	FWHM Right [記mega]	Shape Right	Obs. Lorentz B [記mega]	Obs. Gauss B [記mega]	Instr. Lorentz B [記mega]	Instr. Gauss B [記mega]	Crystallite Size [魔	Micro Strain [%]	Crystallite Size only [魔	Micro Strain only [%]
1	Cr2O3 0 0 6	19,449(1)	0,817(2)	645,43	24,99	 	677(2)	0,273(5)	Included	0,953745	 	 	0,292033	0,755292	0,075240	0,063737	413,097100	1,916138	99,908060	2,282237

Note: README.md
# Methods
## RSM analysis

Check out [doc](documentation/RSM.md)

File: film_c_scan_omega_4deg_step_0.005deg0_C3.xy
17.46080 27.0
17.47580 37.0
17.49080 30.0
17.50580 40.0
17.52080 41.0
17.53580 27.0
17.55080 24.0
17.56580 28.0
17.58080 37.0
17.59580 23.0
17.61080 32.0
17.62580 30.0
17.64080 40.0
17.65580 45.0
17.67080 29.0
17.68580 33.0
17.70080 36.0
17.71580 33.0
17.73080 35.0
17.74580 37.0
17.76080 41.0
17.77580 37.0
17.79080 30.0
17.80580 25.0
17.82080 41.0
17.83580 30.0
17.85080 37.0
17.86580 35.0
17.88080 37.0
17.89580 36.0
17.91080 37.0
17.92580 34.0
17.94080 38.0
17.95580 38.0
17.97080 40.0
17.98580 48.0
18.00080 49.0
18.01580 51.0
18.03080 38.0
18.04580 43.0
18.06080 58.0
18.07580 35.0
18.09080 47.0
18.10580 43.0
18.12080 35.0
18.13580 36.0
18.15080 45.0
18.16580 56.0
18.18080 46.0
18.19580 41.0
18.21080 55.0
18.22580 57.0
18.24080 54.0
18.25580 48.0
18.27080 61.0
18.28580 49.0
18.30080 64.0
18.31580 57.0
18.33080 57.0
18.34580 53.0
18.36080 60.0
18.37580 57.0
18.39080 70.0
18.40580 75.0
18.42080 60.0
18.43580 57.0
18.45080 75.0
18.46580 81.0
18.48080 76.0
18.49580 82.0
18.51080 90.0
18.52580 99.0
18.54080 99.0
18.55580 90.0
18.57080 92.0
18.58580 118.0
18.60080 91.0
18.61580 123.0
18.63080 109.0
18.64580 126.0
18.66080 155.0
18.67580 140.0
18.69080 161.0
18.70580 161.0
18.72080 165.0
18.73580 159.0
18.75080 182.0
18.76580 187.0
18.78080 216.0
18.79580 215.0
18.81080 214.0
18.82580 261.0
18.84080 265.0
18.85580 255.0
18.87080 269.0
18.88580 291.0
18.90080 280.0
18.91580 317.0
18.93080 336.0
18.94580 370.0
18.96080 385.0
18.97580 377.0
18.99080 402.0
19.00580 459.0
19.02080 434.0
19.03580 483.0
19.05080 528.0
19.06580 522.0
19.08080 556.0
19.09580 592.0
19.11080 575.0
19.12580 642.0
19.14080 630.0
19.15580 670.0
19.17080 708.0
19.18580 782.0
19.20080 792.0
19.21580 825.0
19.23080 794.0
19.24580 824.0
19.26080 907.0
19.27580 953.0
19.29080 909.0
19.30580 978.0
19.32080 985.0
19.33580 982.0
19.35080 946.0
19.36580 995.0
19.38080 990.0
19.39580 1051.0
19.41080 1090.0
19.42580 1002.0
19.44080 994.0
19.45580 1038.0
19.47080 1107.0
19.48580 1066.0
19.50080 1065.0
19.51580 1022.0
19.53080 1059.0
19.54580 1043.0
19.56080 1045.0
19.57580 994.0
19.59080 936.0
19.60580 971.0
19.62080 970.0
19.63580 879.0
19.65080 914.0
19.66580 893.0
19.68080 887.0
19.69580 795.0
19.71080 790.0
19.72580 723.0
19.74080 753.0
19.75580 718.0
19.77080 742.0
19.78580 681.0
19.80080 633.0
19.81580 641.0
19.83080 582.0
19.84580 591.0
19.86080 545.0
19.87580 501.0
19.89080 502.0
19.90580 471.0
19.92080 448.0
19.93580 400.0
19.95080 381.0
19.96580 363.0
19.98080 377.0
19.99580 355.0
20.01080 332.0
20.02580 301.0
20.04080 298.0
20.05580 269.0
20.07080 257.0
20.08580 245.0
20.10080 240.0
20.11580 220.0
20.13080 211.0
20.14580 197.0
20.16080 190.0
20.17580 192.0
20.19080 157.0
20.20580 160.0
20.22080 160.0
20.23580 156.0
20.25080 140.0
20.26580 120.0
20.28080 118.0
20.29580 113.0
20.31080 125.0
20.32580 97.0
20.34080 104.0
20.35580 114.0
20.37080 101.0
20.38580 79.0
20.40080 88.0
20.41580 94.0
20.43080 86.0
20.44580 87.0
20.46080 76.0
20.47580 63.0
20.49080 76.0
20.50580 64.0
20.52080 61.0
20.53580 62.0
20.55080 55.0
20.56580 62.0
20.58080 57.0
20.59580 52.0
20.61080 60.0
20.62580 58.0
20.64080 32.0
20.65580 48.0
20.67080 45.0
20.68580 61.0
20.70080 38.0
20.71580 51.0
20.73080 44.0
20.74580 48.0
20.76080 52.0
20.77580 40.0
20.79080 51.0
20.80580 39.0
20.82080 34.0
20.83580 32.0
20.85080 36.0
20.86580 31.0
20.88080 24.0
20.89580 32.0
20.91080 39.0
20.92580 37.0
20.94080 34.0
20.95580 39.0
20.97080 37.0
20.98580 36.0
21.00080 41.0
21.01580 37.0
21.03080 41.0
21.04580 29.0
21.06080 32.0
21.07580 38.0
21.09080 44.0
21.10580 33.0
21.12080 29.0
21.13580 38.0
21.15080 27.0
21.16580 43.0
21.18080 35.0
21.19580 27.0
21.21080 27.0
21.22580 26.0
21.24080 36.0
21.25580 27.0
21.27080 32.0
21.28580 33.0
21.30080 22.0
21.31580 36.0
21.33080 28.0
21.34580 19.0
21.36080 36.0
21.37580 39.0
21.39080 29.0
21.40580 27.0
21.42080 23.0