Folder: DataAnalysis/data/w6930c/XRD_2ThetaOmega

Note: data/w6930c/XRD_2ThetaOmega/W6930c_peaks.TXT
No.	Label	Pos. [°2Th.]	FWHM Left [°2Th.]	Area [cts*°2Th.]	Backgr.[cts]	d-spacing [Å]	Height [cts]	Shape Left	Status	Integral Breadth [°2Th.]	FWHM Right [°2Th.]	Shape Right	Obs. Lorentz B [°2Th.]	Obs. Gauss B [°2Th.]	Instr. Lorentz B [°2Th.]	Instr. Gauss B [°2Th.]	Crystallite Size [Å]	Micro Strain [%]	Crystallite Size only [Å]	Micro Strain only [%]
1	Cr2O3 0 0 6	39,3734(4)	0,222(1)	533,56	63,60	2,28659	1952(9)	0,426(9)	Included	0,273388	 	 	0,127167	0,184729	0,073935	0,062635	1761,125000	0,211937	448,144400	0,255118
2	Al2O3 0 0 6	41,61198(3)	0,03519(7)	2081,35	72,18	2,16861	47159(95)	0,470(3)	Included	0,044135	 	 	0,022471	0,028344	0,073977	0,062671	-1833,347000	-0,064184	29857,260000	0,003632

Note: README.md
# Methods
## RSM analysis

Check out [doc](documentation/RSM.md)

File: scan_2th-om_c_Cr2O3_35-45deg_PIXscan_4min_C3.xy
35.0021 62.0
35.0365 50.0
35.071 46.0
35.1055 57.0
35.1399 57.0
35.1744 47.0
35.2089 65.0
35.2433 54.0
35.2778 53.0
35.3123 50.0
35.3467 65.0
35.3812 61.0
35.4157 67.0
35.4501 53.0
35.4846 71.0
35.5191 53.0
35.5535 60.0
35.588 68.0
35.6225 64.0
35.6569 51.0
35.6914 66.0
35.7259 56.0
35.7603 54.0
35.7948 50.0
35.8293 53.0
35.8637 51.0
35.8982 69.0
35.9327 56.0
35.9671 44.0
36.0016 50.0
36.0361 48.0
36.0705 59.0
36.105 71.0
36.1395 65.0
36.1739 33.0
36.2084 62.0
36.2429 53.0
36.2773 47.0
36.3118 46.0
36.3463 50.0
36.3807 60.0
36.4152 59.0
36.4497 60.0
36.4841 56.0
36.5186 60.0
36.5531 60.0
36.5875 48.0
36.622 70.0
36.6565 56.0
36.6909 52.0
36.7254 48.0
36.7599 53.0
36.7943 40.0
36.8288 62.0
36.8633 65.0
36.8977 62.0
36.9322 49.0
36.9667 55.0
37.0011 55.0
37.0356 48.0
37.0701 56.0
37.1045 52.0
37.139 55.0
37.1735 63.0
37.2079 42.0
37.2424 62.0
37.2769 60.0
37.3114 65.0
37.3458 72.0
37.3803 55.0
37.4148 114.0
37.4492 156.0
37.4837 89.0
37.5182 75.0
37.5526 62.0
37.5871 48.0
37.6216 75.0
37.656 60.0
37.6905 63.0
37.725 60.0
37.7594 68.0
37.7939 71.0
37.8284 68.0
37.8628 61.0
37.8973 62.0
37.9318 59.0
37.9662 67.0
38.0007 74.0
38.0352 57.0
38.0696 66.0
38.1041 57.0
38.1386 57.0
38.173 57.0
38.2075 75.0
38.242 71.0
38.2764 71.0
38.3109 57.0
38.3454 65.0
38.3798 66.0
38.4143 62.0
38.4488 67.0
38.4832 61.0
38.5177 67.0
38.5522 61.0
38.5866 81.0
38.6211 71.0
38.6556 74.0
38.69 73.0
38.7245 73.0
38.759 58.0
38.7934 68.0
38.8279 58.0
38.8624 74.0
38.8968 100.0
38.9313 89.0
38.9658 94.0
39.0002 95.0
39.0347 113.0
39.0692 139.0
39.1036 168.0
39.1381 249.0
39.1726 294.0
39.207 488.0
39.2415 873.0
39.276 1630.0
39.3104 2409.0
39.3449 2638.0
39.3794 2518.0
39.4138 2440.0
39.4483 2122.0
39.4828 1731.0
39.5172 1413.0
39.5517 1098.0
39.5862 906.0
39.6206 729.0
39.6551 546.0
39.6896 433.0
39.724 376.0
39.7585 308.0
39.793 221.0
39.8274 200.0
39.8619 179.0
39.8964 146.0
39.9308 158.0
39.9653 120.0
39.9998 114.0
40.0342 118.0
40.0687 99.0
40.1032 86.0
40.1376 111.0
40.1721 97.0
40.2066 72.0
40.241 79.0
40.2755 82.0
40.31 82.0
40.3444 82.0
40.3789 83.0
40.4134 64.0
40.4478 71.0
40.4823 62.0
40.5168 76.0
40.5512 71.0
40.5857 72.0
40.6202 75.0
40.6546 68.0
40.6891 87.0
40.7236 92.0
40.758 85.0
40.7925 76.0
40.827 92.0
40.8615 74.0
40.8959 97.0
40.9304 90.0
40.9649 81.0
40.9993 94.0
41.0338 97.0
41.0683 103.0
41.1027 104.0
41.1372 96.0
41.1717 109.0
41.2061 108.0
41.2406 114.0
41.2751 146.0
41.3095 145.0
41.344 184.0
41.3785 262.0
41.4129 433.0
41.4474 511.0
41.4819 436.0
41.5163 677.0
41.5508 1513.0
41.5853 10282.0
41.6197 41757.0
41.6542 3814.0
41.6887 4249.0
41.7231 22413.0
41.7576 2757.0
41.7921 790.0
41.8265 416.0
41.861 330.0
41.8955 256.0
41.9299 165.0
41.9644 164.0
41.9989 153.0
42.0333 128.0
42.0678 108.0
42.1023 122.0
42.1367 90.0
42.1712 80.0
42.2057 90.0
42.2401 67.0
42.2746 76.0
42.3091 81.0
42.3435 90.0
42.378 77.0
42.4125 85.0
42.4469 78.0
42.4814 69.0
42.5159 72.0
42.5503 76.0
42.5848 82.0
42.6193 57.0
42.6537 70.0
42.6882 58.0
42.7227 73.0
42.7571 69.0
42.7916 67.0
42.8261 72.0
42.8605 63.0
42.895 65.0
42.9295 58.0
42.9639 60.0
42.9984 53.0
43.0329 60.0
43.0673 53.0
43.1018 76.0
43.1363 58.0
43.1707 51.0
43.2052 67.0
43.2397 61.0
43.2741 62.0
43.3086 65.0
43.3431 53.0
43.3775 63.0
43.412 50.0
43.4465 64.0
43.4809 55.0
43.5154 67.0
43.5499 84.0
43.5843 52.0
43.6188 65.0
43.6533 63.0
43.6877 62.0
43.7222 46.0
43.7567 72.0
43.7911 65.0
43.8256 69.0
43.8601 66.0
43.8945 73.0
43.929 56.0
43.9635 57.0
43.9979 76.0
44.0324 83.0
44.0669 66.0
44.1013 90.0
44.1358 87.0
44.1703 74.0
44.2047 82.0
44.2392 89.0
44.2737 101.0
44.3081 111.0
44.3426 140.0
44.3771 159.0
44.4116 136.0
44.446 126.0
44.4805 138.0
44.515 92.0
44.5494 113.0
44.5839 106.0
44.6184 70.0
44.6528 64.0
44.6873 78.0
44.7218 60.0
44.7562 75.0
44.7907 70.0
44.8252 55.0
44.8596 56.0
44.8941 79.0
44.9286 52.0
44.963 58.0
44.9975 58.0