Folder: DataAnalysis/data/W6957a/XRD_2ThetaOmega

Note: README.md
# Methods
## RSM analysis

Check out [doc](documentation/RSM.md)

File: a_scan_2th-om_10-130deg_PIXscan_17min_C1.xy
10.0035 48.0
10.4072 52.0
10.811 43.0
11.2147 39.0
11.6185 57.0
12.0222 53.0
12.426 39.0
12.8298 43.0
13.2335 30.0
13.6373 38.0
14.041 34.0
14.4448 36.0
14.8485 29.0
15.2523 46.0
15.656 34.0
16.0598 19.0
16.4636 36.0
16.8673 31.0
17.2711 26.0
17.6748 31.0
18.0786 32.0
18.4823 36.0
18.8861 25.0
19.2899 25.0
19.6936 30.0
20.0974 31.0
20.5011 23.0
20.9049 25.0
21.3086 34.0
21.7124 17.0
22.1161 27.0
22.5199 28.0
22.9237 26.0
23.3274 35.0
23.7312 24.0
24.1349 33.0
24.5387 23.0
24.9424 24.0
25.3462 23.0
25.75 29.0
26.1537 28.0
26.5575 25.0
26.9612 20.0
27.365 14.0
27.7687 18.0
28.1725 21.0
28.5762 24.0
28.98 20.0
29.3838 17.0
29.7875 20.0
30.1913 20.0
30.595 17.0
30.9988 19.0
31.4025 14.0
31.8063 16.0
32.2101 46.0
32.6138 24.0
33.0176 16.0
33.4213 21.0
33.8251 41.0
34.2288 32.0
34.6326 62.0
35.0363 129.0
35.4401 293.0
35.8439 13778.0
36.2476 799.0
36.6514 144.0
37.0551 124.0
37.4589 326.0
37.8626 8645.0
38.2664 126.0
38.6702 45.0
39.0739 43.0
39.4777 27.0
39.8814 35.0
40.2852 26.0
40.6889 25.0
41.0927 29.0
41.4964 25.0
41.9002 24.0
42.304 16.0
42.7077 26.0
43.1115 29.0
43.5152 36.0
43.919 36.0
44.3227 47.0
44.7265 20.0
45.1303 23.0
45.534 25.0
45.9378 18.0
46.3415 34.0
46.7453 13.0
47.149 17.0
47.5528 24.0
47.9565 24.0
48.3603 26.0
48.7641 35.0
49.1678 29.0
49.5716 28.0
49.9753 27.0
50.3791 22.0
50.7828 25.0
51.1866 16.0
51.5903 18.0
51.9941 23.0
52.3979 22.0
52.8016 25.0
53.2054 20.0
53.6091 14.0
54.0129 28.0
54.4166 22.0
54.8204 30.0
55.2242 15.0
55.6279 23.0
56.0317 33.0
56.4354 18.0
56.8392 22.0
57.2429 18.0
57.6467 16.0
58.0504 21.0
58.4542 21.0
58.858 23.0
59.2617 12.0
59.6655 25.0
60.0692 24.0
60.473 21.0
60.8767 25.0
61.2805 27.0
61.6843 26.0
62.088 20.0
62.4918 25.0
62.8955 21.0
63.2993 30.0
63.703 20.0
64.1068 32.0
64.5105 22.0
64.9143 23.0
65.3181 34.0
65.7218 15.0
66.1256 19.0
66.5293 23.0
66.9331 20.0
67.3368 31.0
67.7406 29.0
68.1444 31.0
68.5481 19.0
68.9519 22.0
69.3556 29.0
69.7594 30.0
70.1631 32.0
70.5669 27.0
70.9706 27.0
71.3744 28.0
71.7782 37.0
72.1819 24.0
72.5857 27.0
72.9894 23.0
73.3932 22.0
73.7969 28.0
74.2007 31.0
74.6045 31.0
75.0082 39.0
75.412 58.0
75.8157 468.0
76.2195 4102.0
76.6232 286.0
77.027 44.0
77.4307 40.0
77.8345 36.0
78.2383 25.0
78.642 30.0
79.0458 35.0
79.4495 69.0
79.8533 65.0
80.257 202.0
80.6608 21409.0
81.0646 286.0
81.4683 79.0
81.8721 52.0
82.2758 38.0
82.6796 27.0
83.0833 31.0
83.4871 34.0
83.8908 23.0
84.2946 32.0
84.6984 26.0
85.1021 29.0
85.5059 28.0
85.9096 19.0
86.3134 21.0
86.7171 29.0
87.1209 26.0
87.5247 26.0
87.9284 28.0
88.3322 28.0
88.7359 26.0
89.1397 19.0
89.5434 21.0
89.9472 44.0
90.3509 38.0
90.7547 31.0
91.1585 26.0
91.5622 26.0
91.966 27.0
92.3697 31.0
92.7735 33.0
93.1772 27.0
93.581 27.0
93.9848 41.0
94.3885 30.0
94.7923 31.0
95.196 23.0
95.5998 28.0
96.0035 28.0
96.4073 30.0
96.811 36.0
97.2148 26.0
97.6186 21.0
98.0223 27.0
98.4261 27.0
98.8298 26.0
99.2336 32.0
99.6373 24.0
100.041 15.0
100.445 41.0
100.849 25.0
101.252 25.0
101.656 18.0
102.06 46.0
102.464 35.0
102.867 28.0
103.271 21.0
103.675 25.0
104.079 28.0
104.482 28.0
104.886 22.0
105.29 32.0
105.694 33.0
106.097 34.0
106.501 29.0
106.905 23.0
107.309 22.0
107.712 37.0
108.116 26.0
108.52 20.0
108.924 27.0
109.327 26.0
109.731 35.0
110.135 39.0
110.539 29.0
110.943 24.0
111.346 29.0
111.75 32.0
112.154 26.0
112.558 16.0
112.961 30.0
113.365 29.0
113.769 36.0
114.173 38.0
114.576 31.0
114.98 33.0
115.384 19.0
115.788 37.0
116.191 35.0
116.595 27.0
116.999 38.0
117.403 26.0
117.806 36.0
118.21 38.0
118.614 31.0
119.018 36.0
119.421 31.0
119.825 29.0
120.229 30.0
120.633 32.0
121.036 27.0
121.44 32.0
121.844 29.0
122.248 39.0
122.651 97.0
123.055 39.0
123.459 36.0
123.863 25.0
124.266 34.0
124.67 44.0
125.074 26.0
125.478 30.0
125.881 25.0
126.285 31.0
126.689 41.0
127.093 31.0
127.497 28.0
127.9 38.0
128.304 38.0
128.708 23.0
129.112 32.0
129.515 40.0
129.919 28.0
129.998 30.0