Folder: DataAnalysis/data/W6776m/XRD_2ThetaOmega

Note: data/W6776m/XRD_2ThetaOmega/W6776m_peaks.TXT
No.	Label	Pos. [°2Th.]	FWHM Left [°2Th.]	Area calc.	Assignment	h	k	l	Multiplicity	F obs.	F calc.	Area [cts*°2Th.]	Derivation	Backgr.[cts]	d-spacing [Å]	Height [cts]	K-A2 / K-A1 Ratio	Matched	Matched by	Rel. Int. [%]	Source	Status	Integral Breadth [°2Th.]
1	Cr2O3 3 0 0	64,760(3)	0,381(9)	0,00	 	3	0	0	 	0,000000	0,000000	68,94	Pure KA1	41,50	1,43837	167(11)	0,500	False	 	0,38	Profile fitting	Included	0,412316
2	Al2O3 3 0 0	68,16915(3)	0,0607(1)	0,00	 	3	0	0	 	0,000000	0,000000	3339,94	Pure KA1	94,07	1,37451	43819(68)	0,500	False	 	100,00	Profile fitting	Included	0,076221

Note: README.md
# Methods
## RSM analysis

Check out [doc](documentation/RSM.md)

File: W6776m_absolute_2th-om_10-130deg_PIXscan_17min_9.xy
10.0035 29.0
10.4072 18.0
10.811 19.0
11.2147 20.0
11.6185 32.0
12.0222 19.0
12.426 34.0
12.8298 22.0
13.2335 17.0
13.6373 26.0
14.041 22.0
14.4448 8.0
14.8485 22.0
15.2523 18.0
15.656 20.0
16.0598 21.0
16.4636 16.0
16.8673 17.0
17.2711 25.0
17.6748 18.0
18.0786 11.0
18.4823 15.0
18.8861 18.0
19.2899 16.0
19.6936 13.0
20.0974 15.0
20.5011 9.0
20.9049 12.0
21.3086 16.0
21.7124 20.0
22.1161 9.0
22.5199 16.0
22.9237 17.0
23.3274 17.0
23.7312 13.0
24.1349 11.0
24.5387 10.0
24.9424 20.0
25.3462 9.0
25.75 6.0
26.1537 19.0
26.5575 7.0
26.9612 7.0
27.365 13.0
27.7687 14.0
28.1725 12.0
28.5762 14.0
28.98 10.0
29.3838 15.0
29.7875 22.0
30.1913 13.0
30.595 16.0
30.9988 11.0
31.4025 16.0
31.8063 7.0
32.2101 14.0
32.6138 7.0
33.0176 7.0
33.4213 12.0
33.8251 19.0
34.2288 11.0
34.6326 9.0
35.0363 13.0
35.4401 11.0
35.8439 14.0
36.2476 9.0
36.6514 15.0
37.0551 9.0
37.4589 18.0
37.8626 15.0
38.2664 6.0
38.6702 17.0
39.0739 14.0
39.4777 9.0
39.8814 11.0
40.2852 14.0
40.6889 17.0
41.0927 12.0
41.4964 16.0
41.9002 11.0
42.304 14.0
42.7077 8.0
43.1115 9.0
43.5152 17.0
43.919 15.0
44.3227 33.0
44.7265 14.0
45.1303 12.0
45.534 10.0
45.9378 17.0
46.3415 17.0
46.7453 17.0
47.149 16.0
47.5528 13.0
47.9565 15.0
48.3603 14.0
48.7641 16.0
49.1678 17.0
49.5716 17.0
49.9753 13.0
50.3791 7.0
50.7828 15.0
51.1866 16.0
51.5903 14.0
51.9941 15.0
52.3979 14.0
52.8016 10.0
53.2054 14.0
53.6091 10.0
54.0129 12.0
54.4166 11.0
54.8204 13.0
55.2242 11.0
55.6279 15.0
56.0317 12.0
56.4354 8.0
56.8392 17.0
57.2429 14.0
57.6467 15.0
58.0504 13.0
58.4542 13.0
58.858 14.0
59.2617 17.0
59.6655 10.0
60.0692 13.0
60.473 15.0
60.8767 112.0
61.2805 13.0
61.6843 9.0
62.088 19.0
62.4918 18.0
62.8955 13.0
63.2993 14.0
63.703 23.0
64.1068 25.0
64.5105 108.0
64.9143 260.0
65.3181 43.0
65.7218 29.0
66.1256 27.0
66.5293 38.0
66.9331 42.0
67.3368 64.0
67.7406 186.0
68.1444 30538.0
68.5481 456.0
68.9519 127.0
69.3556 63.0
69.7594 46.0
70.1631 34.0
70.5669 22.0
70.9706 26.0
71.3744 22.0
71.7782 21.0
72.1819 16.0
72.5857 15.0
72.9894 24.0
73.3932 13.0
73.7969 16.0
74.2007 31.0
74.6045 18.0
75.0082 12.0
75.412 16.0
75.8157 10.0
76.2195 9.0
76.6232 15.0
77.027 16.0
77.4307 15.0
77.8345 4.0
78.2383 22.0
78.642 11.0
79.0458 15.0
79.4495 18.0
79.8533 11.0
80.257 14.0
80.6608 11.0
81.0646 12.0
81.4683 8.0
81.8721 16.0
82.2758 15.0
82.6796 12.0
83.0833 11.0
83.4871 15.0
83.8908 16.0
84.2946 11.0
84.6984 11.0
85.1021 16.0
85.5059 14.0
85.9096 12.0
86.3134 14.0
86.7171 18.0
87.1209 15.0
87.5247 12.0
87.9284 15.0
88.3322 20.0
88.7359 17.0
89.1397 18.0
89.5434 13.0
89.9472 19.0
90.3509 15.0
90.7547 11.0
91.1585 11.0
91.5622 13.0
91.966 8.0
92.3697 16.0
92.7735 13.0
93.1772 20.0
93.581 13.0
93.9848 8.0
94.3885 10.0
94.7923 15.0
95.196 18.0
95.5998 16.0
96.0035 7.0
96.4073 8.0
96.811 15.0
97.2148 14.0
97.6186 20.0
98.0223 13.0
98.4261 15.0
98.8298 16.0
99.2336 10.0
99.6373 13.0
100.041 16.0
100.445 19.0
100.849 15.0
101.252 18.0
101.656 9.0
102.06 15.0
102.464 12.0
102.867 10.0
103.271 12.0
103.675 16.0
104.079 21.0
104.482 14.0
104.886 6.0
105.29 8.0
105.694 16.0
106.097 15.0
106.501 8.0
106.905 13.0
107.309 17.0
107.712 12.0
108.116 9.0
108.52 13.0
108.924 15.0
109.327 7.0
109.731 15.0
110.135 15.0
110.539 17.0
110.943 17.0
111.346 9.0
111.75 5.0
112.154 20.0
112.558 9.0
112.961 8.0
113.365 9.0
113.769 13.0
114.173 16.0
114.576 15.0
114.98 14.0
115.384 13.0
115.788 16.0
116.191 20.0
116.595 20.0
116.999 13.0
117.403 14.0
117.806 19.0
118.21 15.0
118.614 13.0
119.018 14.0
119.421 12.0
119.825 11.0
120.229 16.0
120.633 23.0
121.036 20.0
121.44 14.0
121.844 14.0
122.248 17.0
122.651 19.0
123.055 11.0
123.459 20.0
123.863 17.0
124.266 13.0
124.67 14.0
125.074 11.0
125.478 16.0
125.881 14.0
126.285 16.0
126.689 13.0
127.093 17.0
127.497 20.0
127.9 15.0
128.304 14.0
128.708 12.0
129.112 11.0
129.515 8.0
129.919 16.0
129.998 12.0