Folder: DataAnalysis/data/W6857a/XRD_2ThetaOmega

Note: data/W6857a/XRD_2ThetaOmega/W6857a_peaks.TXT
No.	Label	Pos. [°2Th.]	FWHM Left [°2Th.]	Area [cts*°2Th.]	Backgr.[cts]	d-spacing [Å]	Height [cts]	Shape Left	Status	Integral Breadth [°2Th.]	FWHM Right [°2Th.]	Shape Right	Obs. Lorentz B [°2Th.]	Obs. Gauss B [°2Th.]	Instr. Lorentz B [°2Th.]	Instr. Gauss B [°2Th.]	Crystallite Size [Å]	Micro Strain [%]	Crystallite Size only [Å]	Micro Strain only [%]
1	Cr2O3 1 1 0	35,5898(4)	0,2370(9)	378,89	19,85	2,52053	1294(10)	0,430(7)	Included	0,292871	 	 	0,137526	0,196917	0,073958	0,062654	1458,344000	0,253784	404,490000	0,311568
2	Al2O3 1 1 0	37,71809(4)	0,04791(8)	2186,21	20,93	2,38305	38119(45)	0,343(3)	Included	0,057352	 	 	0,021803	0,042362	0,073930	0,062631	-1789,400000	-0,058929	29493,540000	0,004040
3	Cr2O3 2 2 0	75,474(5)	0,64(3)	48,09	6,29	1,25858	48(1)	0,99(7)	Included	0,998417	 	 	0,984061	0,081586	0,081402	0,068961	123,653600	0,024579	123,366500	0,510097
4	Al2O3 2 2 0	80,65402(8)	0,0661(2)	761,28	20,91	1,19030	9027(30)	0,516(5)	Included	0,084330	 	 	0,046803	0,051144	0,084080	0,071228	-3106,108000	-0,025482	36610,130000	0,001626

Note: README.md
# Methods
## RSM analysis

Check out [doc](documentation/RSM.md)

File: W6857a_(changed from r to a)_10-130deg.xy
10.0035 11.0
10.4072 17.0
10.811 13.0
11.2147 21.0
11.6185 16.0
12.0222 15.0
12.426 15.0
12.8298 17.0
13.2335 20.0
13.6373 17.0
14.041 14.0
14.4448 11.0
14.8485 17.0
15.2523 17.0
15.656 15.0
16.0598 21.0
16.4636 21.0
16.8673 14.0
17.2711 14.0
17.6748 13.0
18.0786 9.0
18.4823 13.0
18.8861 14.0
19.2899 21.0
19.6936 14.0
20.0974 21.0
20.5011 17.0
20.9049 15.0
21.3086 16.0
21.7124 13.0
22.1161 15.0
22.5199 11.0
22.9237 10.0
23.3274 14.0
23.7312 11.0
24.1349 18.0
24.5387 19.0
24.9424 13.0
25.3462 9.0
25.75 12.0
26.1537 7.0
26.5575 9.0
26.9612 9.0
27.365 7.0
27.7687 11.0
28.1725 17.0
28.5762 10.0
28.98 14.0
29.3838 8.0
29.7875 9.0
30.1913 16.0
30.595 11.0
30.9988 11.0
31.4025 11.0
31.8063 11.0
32.2101 13.0
32.6138 15.0
33.0176 20.0
33.4213 13.0
33.8251 23.0
34.2288 14.0
34.6326 11.0
35.0363 34.0
35.4401 522.0
35.8439 364.0
36.2476 48.0
36.6514 25.0
37.0551 44.0
37.4589 114.0
37.8626 2152.0
38.2664 89.0
38.6702 53.0
39.0739 24.0
39.4777 29.0
39.8814 17.0
40.2852 12.0
40.6889 13.0
41.0927 12.0
41.4964 19.0
41.9002 11.0
42.304 8.0
42.7077 11.0
43.1115 8.0
43.5152 21.0
43.919 12.0
44.3227 17.0
44.7265 14.0
45.1303 14.0
45.534 8.0
45.9378 10.0
46.3415 19.0
46.7453 12.0
47.149 15.0
47.5528 9.0
47.9565 11.0
48.3603 11.0
48.7641 11.0
49.1678 10.0
49.5716 13.0
49.9753 10.0
50.3791 13.0
50.7828 7.0
51.1866 13.0
51.5903 15.0
51.9941 19.0
52.3979 12.0
52.8016 9.0
53.2054 10.0
53.6091 13.0
54.0129 13.0
54.4166 12.0
54.8204 4.0
55.2242 17.0
55.6279 8.0
56.0317 11.0
56.4354 19.0
56.8392 18.0
57.2429 19.0
57.6467 17.0
58.0504 14.0
58.4542 6.0
58.858 15.0
59.2617 10.0
59.6655 10.0
60.0692 6.0
60.473 15.0
60.8767 11.0
61.2805 11.0
61.6843 14.0
62.088 10.0
62.4918 14.0
62.8955 7.0
63.2993 13.0
63.703 9.0
64.1068 8.0
64.5105 13.0
64.9143 11.0
65.3181 16.0
65.7218 9.0
66.1256 12.0
66.5293 16.0
66.9331 14.0
67.3368 9.0
67.7406 14.0
68.1444 4.0
68.5481 15.0
68.9519 12.0
69.3556 14.0
69.7594 8.0
70.1631 12.0
70.5669 16.0
70.9706 11.0
71.3744 9.0
71.7782 13.0
72.1819 14.0
72.5857 6.0
72.9894 12.0
73.3932 11.0
73.7969 20.0
74.2007 9.0
74.6045 13.0
75.0082 28.0
75.412 59.0
75.8157 48.0
76.2195 17.0
76.6232 37.0
77.027 20.0
77.4307 17.0
77.8345 8.0
78.2383 14.0
78.642 15.0
79.0458 13.0
79.4495 18.0
79.8533 24.0
80.257 61.0
80.6608 8617.0
81.0646 116.0
81.4683 34.0
81.8721 21.0
82.2758 23.0
82.6796 19.0
83.0833 18.0
83.4871 17.0
83.8908 12.0
84.2946 16.0
84.6984 17.0
85.1021 8.0
85.5059 3.0
85.9096 11.0
86.3134 15.0
86.7171 13.0
87.1209 10.0
87.5247 14.0
87.9284 10.0
88.3322 12.0
88.7359 14.0
89.1397 9.0
89.5434 13.0
89.9472 10.0
90.3509 14.0
90.7547 16.0
91.1585 15.0
91.5622 15.0
91.966 8.0
92.3697 6.0
92.7735 14.0
93.1772 7.0
93.581 11.0
93.9848 13.0
94.3885 12.0
94.7923 11.0
95.196 11.0
95.5998 11.0
96.0035 9.0
96.4073 15.0
96.811 9.0
97.2148 13.0
97.6186 12.0
98.0223 16.0
98.4261 15.0
98.8298 11.0
99.2336 14.0
99.6373 14.0
100.041 15.0
100.445 7.0
100.849 13.0
101.252 13.0
101.656 12.0
102.06 10.0
102.464 12.0
102.867 14.0
103.271 15.0
103.675 13.0
104.079 13.0
104.482 5.0
104.886 12.0
105.29 9.0
105.694 9.0
106.097 11.0
106.501 10.0
106.905 11.0
107.309 8.0
107.712 15.0
108.116 17.0
108.52 17.0
108.924 9.0
109.327 11.0
109.731 14.0
110.135 13.0
110.539 21.0
110.943 13.0
111.346 12.0
111.75 14.0
112.154 18.0
112.558 10.0
112.961 11.0
113.365 11.0
113.769 10.0
114.173 15.0
114.576 9.0
114.98 14.0
115.384 11.0
115.788 15.0
116.191 13.0
116.595 10.0
116.999 12.0
117.403 14.0
117.806 19.0
118.21 5.0
118.614 17.0
119.018 11.0
119.421 13.0
119.825 10.0
120.229 7.0
120.633 12.0
121.036 7.0
121.44 15.0
121.844 11.0
122.248 13.0
122.651 24.0
123.055 15.0
123.459 8.0
123.863 15.0
124.266 16.0
124.67 14.0
125.074 6.0
125.478 10.0
125.881 9.0
126.285 9.0
126.689 11.0
127.093 9.0
127.497 9.0
127.9 24.0
128.304 13.0
128.708 11.0
129.112 13.0
129.515 10.0
129.919 14.0
129.998 21.0