Folder: DataAnalysis/data/W6857a/XRD_Omega

Note: README.md
# Methods
## RSM analysis

Check out [doc](documentation/RSM.md)

File: W6857a_Cr2O3_scan_omega_2deg_step_0.002deg0_8.xy
17.51070 162.0
17.51870 137.0
17.52670 186.0
17.53470 161.0
17.54270 175.0
17.55070 184.0
17.55870 154.0
17.56670 176.0
17.57470 185.0
17.58270 160.0
17.59070 190.0
17.59870 181.0
17.60670 164.0
17.61470 176.0
17.62270 169.0
17.63070 162.0
17.63870 175.0
17.64670 169.0
17.65470 146.0
17.66270 173.0
17.67070 148.0
17.67870 160.0
17.68670 183.0
17.69470 157.0
17.70270 159.0
17.71070 156.0
17.71870 169.0
17.72670 178.0
17.73470 152.0
17.74270 170.0
17.75070 175.0
17.75870 178.0
17.76670 159.0
17.77470 131.0
17.78270 177.0
17.79070 178.0
17.79870 145.0
17.80670 162.0
17.81470 188.0
17.82270 170.0
17.83070 168.0
17.83870 163.0
17.84670 203.0
17.85470 151.0
17.86270 161.0
17.87070 160.0
17.87870 178.0
17.88670 158.0
17.89470 189.0
17.90270 188.0
17.91070 179.0
17.91870 152.0
17.92670 184.0
17.93470 185.0
17.94270 176.0
17.95070 178.0
17.95870 174.0
17.96670 186.0
17.97470 141.0
17.98270 173.0
17.99070 171.0
17.99870 182.0
18.00670 168.0
18.01470 162.0
18.02270 174.0
18.03070 175.0
18.03870 187.0
18.04670 151.0
18.05470 157.0
18.06270 197.0
18.07070 163.0
18.07870 179.0
18.08670 163.0
18.09470 178.0
18.10270 143.0
18.11070 161.0
18.11870 169.0
18.12670 147.0
18.13470 148.0
18.14270 166.0
18.15070 161.0
18.15870 186.0
18.16670 154.0
18.17470 144.0
18.18270 145.0
18.19070 163.0
18.19870 173.0
18.20670 161.0
18.21470 177.0
18.22270 156.0
18.23070 152.0
18.23870 178.0
18.24670 139.0
18.25470 177.0
18.26270 143.0
18.27070 179.0
18.27870 145.0
18.28670 160.0
18.29470 163.0
18.30270 140.0
18.31070 172.0
18.31870 149.0
18.32670 135.0
18.33470 181.0
18.34270 164.0
18.35070 159.0
18.35870 189.0
18.36670 153.0
18.37470 148.0
18.38270 167.0
18.39070 167.0
18.39870 151.0
18.40670 170.0
18.41470 165.0
18.42270 152.0
18.43070 158.0
18.43870 159.0
18.44670 144.0
18.45470 143.0
18.46270 169.0
18.47070 143.0
18.47870 151.0
18.48670 157.0
18.49470 164.0
18.50270 175.0
18.51070 187.0
18.51870 166.0
18.52670 150.0
18.53470 127.0
18.54270 165.0
18.55070 158.0
18.55870 154.0
18.56670 157.0
18.57470 158.0
18.58270 159.0
18.59070 157.0
18.59870 172.0
18.60670 158.0
18.61470 166.0
18.62270 151.0
18.63070 157.0
18.63870 172.0
18.64670 163.0
18.65470 171.0
18.66270 159.0
18.67070 135.0
18.67870 145.0
18.68670 183.0
18.69470 177.0
18.70270 154.0
18.71070 157.0
18.71870 158.0
18.72670 136.0
18.73470 158.0
18.74270 167.0
18.75070 142.0
18.75870 154.0
18.76670 150.0
18.77470 189.0
18.78270 154.0
18.79070 154.0
18.79870 173.0
18.80670 140.0
18.81470 160.0
18.82270 166.0
18.83070 157.0
18.83870 139.0
18.84670 137.0
18.85470 168.0
18.86270 151.0
18.87070 175.0
18.87870 139.0
18.88670 172.0
18.89470 134.0
18.90270 165.0
18.91070 142.0
18.91870 166.0
18.92670 128.0
18.93470 160.0
18.94270 147.0
18.95070 140.0
18.95870 158.0
18.96670 153.0
18.97470 124.0
18.98270 171.0
18.99070 134.0
18.99870 161.0
19.00670 155.0
19.01470 144.0
19.02270 129.0
19.03070 152.0
19.03870 141.0
19.04670 148.0
19.05470 176.0
19.06270 172.0
19.07070 171.0
19.07870 159.0
19.08670 161.0
19.09470 162.0
19.10270 165.0
19.11070 158.0
19.11870 165.0
19.12670 160.0
19.13470 155.0
19.14270 158.0
19.15070 157.0
19.15870 201.0
19.16670 166.0
19.17470 173.0
19.18270 149.0
19.19070 162.0
19.19870 153.0
19.20670 162.0
19.21470 163.0
19.22270 142.0
19.23070 166.0
19.23870 145.0
19.24670 168.0
19.25470 147.0
19.26270 164.0
19.27070 128.0
19.27870 157.0
19.28670 147.0
19.29470 170.0
19.30270 151.0
19.31070 155.0
19.31870 158.0
19.32670 157.0
19.33470 135.0
19.34270 143.0
19.35070 157.0
19.35870 150.0
19.36670 153.0
19.37470 187.0
19.38270 169.0
19.39070 149.0
19.39870 152.0
19.40670 164.0
19.41470 154.0
19.42270 158.0
19.43070 168.0
19.43870 161.0
19.44670 161.0
19.45470 155.0
19.46270 137.0
19.47070 159.0
19.47870 169.0
19.48670 157.0
19.49470 165.0