Folder: DataAnalysis/data/W6933r/XRD_Omega

Note: data/W6933r/XRD_Omega/W6933r_omega_peaks.TXT
No.	Label	Pos. [記mega]	FWHM Left [記mega]	Area [cts*記mega]	Backgr.[cts]	d-spacing [魔	Height [cts]	Shape Left	Status	Integral Breadth [記mega]	FWHM Right [記mega]	Shape Right	Obs. Lorentz B [記mega]	Obs. Gauss B [記mega]	Instr. Lorentz B [記mega]	Instr. Gauss B [記mega]	Crystallite Size [魔	Micro Strain [%]	Crystallite Size only [魔	Micro Strain only [%]
1	Cr2O3 0 2 4	24,8348(5)	0,739(1)	1988,05	68,99	 	2266(4)	0,321(3)	Included	0,877260	 	 	0,313015	0,662832	0,074615	0,063208	379,127800	1,307541	110,261500	1,624438

Note: README.md
# Methods
## RSM analysis

Check out [doc](documentation/RSM.md)

File: film_r_scan_omega_4deg_step_0.005deg0.xy
22.87830 68.0
22.89330 79.0
22.90830 77.0
22.92330 94.0
22.93830 60.0
22.95330 71.0
22.96830 106.0
22.98330 72.0
22.99830 69.0
23.01330 82.0
23.02830 75.0
23.04330 81.0
23.05830 77.0
23.07330 77.0
23.08830 68.0
23.10330 78.0
23.11830 90.0
23.13330 84.0
23.14830 88.0
23.16330 70.0
23.17830 110.0
23.19330 82.0
23.20830 104.0
23.22330 93.0
23.23830 74.0
23.25330 104.0
23.26830 98.0
23.28330 100.0
23.29830 97.0
23.31330 85.0
23.32830 109.0
23.34330 104.0
23.35830 105.0
23.37330 102.0
23.38830 103.0
23.40330 100.0
23.41830 118.0
23.43330 87.0
23.44830 110.0
23.46330 107.0
23.47830 122.0
23.49330 119.0
23.50830 131.0
23.52330 133.0
23.53830 145.0
23.55330 142.0
23.56830 135.0
23.58330 143.0
23.59830 136.0
23.61330 130.0
23.62830 145.0
23.64330 159.0
23.65830 135.0
23.67330 132.0
23.68830 163.0
23.70330 169.0
23.71830 172.0
23.73330 163.0
23.74830 168.0
23.76330 185.0
23.77830 177.0
23.79330 205.0
23.80830 209.0
23.82330 182.0
23.83830 210.0
23.85330 221.0
23.86830 248.0
23.88330 275.0
23.89830 252.0
23.91330 245.0
23.92830 285.0
23.94330 267.0
23.95830 283.0
23.97330 274.0
23.98830 294.0
24.00330 313.0
24.01830 342.0
24.03330 326.0
24.04830 366.0
24.06330 376.0
24.07830 431.0
24.09330 444.0
24.10830 450.0
24.12330 467.0
24.13830 488.0
24.15330 489.0
24.16830 543.0
24.18330 593.0
24.19830 588.0
24.21330 576.0
24.22830 678.0
24.24330 707.0
24.25830 771.0
24.27330 782.0
24.28830 832.0
24.30330 869.0
24.31830 962.0
24.33330 966.0
24.34830 1067.0
24.36330 1099.0
24.37830 1155.0
24.39330 1180.0
24.40830 1264.0
24.42330 1340.0
24.43830 1398.0
24.45330 1452.0
24.46830 1566.0
24.48330 1606.0
24.49830 1736.0
24.51330 1861.0
24.52830 1930.0
24.54330 2111.0
24.55830 2054.0
24.57330 2251.0
24.58830 2300.0
24.60330 2393.0
24.61830 2519.0
24.63330 2646.0
24.64830 2710.0
24.66330 2761.0
24.67830 2919.0
24.69330 2922.0
24.70830 3136.0
24.72330 3078.0
24.73830 3279.0
24.75330 3394.0
24.76830 3514.0
24.78330 3466.0
24.79830 3612.0
24.81330 3539.0
24.82830 3632.0
24.84330 3478.0
24.85830 3578.0
24.87330 3676.0
24.88830 3652.0
24.90330 3620.0
24.91830 3476.0
24.93330 3607.0
24.94830 3454.0
24.96330 3310.0
24.97830 3243.0
24.99330 3222.0
25.00830 3178.0
25.02330 2943.0
25.03830 2872.0
25.05330 2790.0
25.06830 2678.0
25.08330 2540.0
25.09830 2591.0
25.11330 2397.0
25.12830 2303.0
25.14330 2199.0
25.15830 2117.0
25.17330 1970.0
25.18830 1831.0
25.20330 1872.0
25.21830 1689.0
25.23330 1599.0
25.24830 1563.0
25.26330 1447.0
25.27830 1360.0
25.29330 1275.0
25.30830 1233.0
25.32330 1194.0
25.33830 1153.0
25.35330 1028.0
25.36830 1024.0
25.38330 922.0
25.39830 905.0
25.41330 799.0
25.42830 760.0
25.44330 792.0
25.45830 692.0
25.47330 721.0
25.48830 621.0
25.50330 558.0
25.51830 568.0
25.53330 569.0
25.54830 523.0
25.56330 512.0
25.57830 468.0
25.59330 461.0
25.60830 436.0
25.62330 431.0
25.63830 386.0
25.65330 381.0
25.66830 350.0
25.68330 325.0
25.69830 331.0
25.71330 324.0
25.72830 315.0
25.74330 311.0
25.75830 295.0
25.77330 291.0
25.78830 248.0
25.80330 275.0
25.81830 237.0
25.83330 240.0
25.84830 222.0
25.86330 226.0
25.87830 210.0
25.89330 195.0
25.90830 178.0
25.92330 190.0
25.93830 170.0
25.95330 167.0
25.96830 160.0
25.98330 167.0
25.99830 149.0
26.01330 151.0
26.02830 146.0
26.04330 143.0
26.05830 162.0
26.07330 124.0
26.08830 123.0
26.10330 148.0
26.11830 117.0
26.13330 117.0
26.14830 112.0
26.16330 117.0
26.17830 126.0
26.19330 117.0
26.20830 121.0
26.22330 103.0
26.23830 103.0
26.25330 87.0
26.26830 116.0
26.28330 98.0
26.29830 108.0
26.31330 84.0
26.32830 87.0
26.34330 105.0
26.35830 85.0
26.37330 83.0
26.38830 103.0
26.40330 78.0
26.41830 92.0
26.43330 96.0
26.44830 89.0
26.46330 90.0
26.47830 79.0
26.49330 73.0
26.50830 76.0
26.52330 85.0
26.53830 76.0
26.55330 71.0
26.56830 89.0
26.58330 87.0
26.59830 79.0
26.61330 80.0
26.62830 96.0
26.64330 99.0
26.65830 73.0
26.67330 62.0
26.68830 63.0
26.70330 70.0
26.71830 74.0
26.73330 74.0
26.74830 74.0
26.76330 69.0
26.77830 62.0
26.79330 59.0
26.80830 70.0
26.82330 49.0
26.83830 70.0