Folder: DataAnalysis/data/W6933r/XRD_2ThetaOmega

Note: data/W6933r/XRD_2ThetaOmega/W6933r_peaks.TXT
No.	Label	Pos. [°2Th.]	FWHM Left [°2Th.]	Area [cts*°2Th.]	Backgr.[cts]	d-spacing [Å]	Height [cts]	Shape Left	Status	Integral Breadth [°2Th.]	FWHM Right [°2Th.]	Shape Right	Obs. Lorentz B [°2Th.]	Obs. Gauss B [°2Th.]	Instr. Lorentz B [°2Th.]	Instr. Gauss B [°2Th.]	Crystallite Size [Å]	Micro Strain [%]	Crystallite Size only [Å]	Micro Strain only [%]
1	Cr2O3 0 2 4	50,058(2)	0,273(4)	52,82	4,83	1,82070	179(3)	0,04(4)	Included	0,294451	 	 	0,013366	0,286639	0,074548	0,063156	-1592,268000	0,261275	348,386200	0,261305
2	Al2O3 0 2 4	52,54446(5)	0,0365(2)	1676,77	7,75	1,74025	33175(119)	0,718(5)	Included	0,050543	 	 	0,037816	0,022254	0,074852	0,063413	-2657,878000	-0,052488	31125,450000	0,002796

Note: README.md
# Methods
## RSM analysis

Check out [doc](documentation/RSM.md)

File: r_scan_2th-om_10-130deg_PIXscan_17min.xy
10.0035 54.0
10.4072 38.0
10.811 45.0
11.2147 47.0
11.6185 47.0
12.0222 45.0
12.426 38.0
12.8298 62.0
13.2335 39.0
13.6373 44.0
14.041 39.0
14.4448 29.0
14.8485 43.0
15.2523 37.0
15.656 31.0
16.0598 33.0
16.4636 40.0
16.8673 31.0
17.2711 31.0
17.6748 25.0
18.0786 38.0
18.4823 36.0
18.8861 34.0
19.2899 25.0
19.6936 28.0
20.0974 35.0
20.5011 32.0
20.9049 17.0
21.3086 28.0
21.7124 30.0
22.1161 26.0
22.5199 34.0
22.9237 38.0
23.3274 32.0
23.7312 66.0
24.1349 262.0
24.5387 844.0
24.9424 106.0
25.3462 415.0
25.75 452.0
26.1537 69.0
26.5575 32.0
26.9612 34.0
27.365 24.0
27.7687 25.0
28.1725 39.0
28.5762 30.0
28.98 28.0
29.3838 28.0
29.7875 24.0
30.1913 20.0
30.595 31.0
30.9988 24.0
31.4025 26.0
31.8063 34.0
32.2101 28.0
32.6138 26.0
33.0176 21.0
33.4213 28.0
33.8251 28.0
34.2288 21.0
34.6326 26.0
35.0363 23.0
35.4401 26.0
35.8439 21.0
36.2476 16.0
36.6514 32.0
37.0551 19.0
37.4589 27.0
37.8626 18.0
38.2664 22.0
38.6702 12.0
39.0739 37.0
39.4777 21.0
39.8814 23.0
40.2852 26.0
40.6889 22.0
41.0927 23.0
41.4964 23.0
41.9002 32.0
42.304 23.0
42.7077 28.0
43.1115 27.0
43.5152 34.0
43.919 29.0
44.3227 63.0
44.7265 39.0
45.1303 30.0
45.534 24.0
45.9378 17.0
46.3415 32.0
46.7453 33.0
47.149 135.0
47.5528 28.0
47.9565 27.0
48.3603 39.0
48.7641 26.0
49.1678 52.0
49.5716 65.0
49.9753 1267.0
50.3791 181.0
50.7828 59.0
51.1866 51.0
51.5903 79.0
51.9941 135.0
52.3979 1550.0
52.8016 635.0
53.2054 126.0
53.6091 66.0
54.0129 44.0
54.4166 40.0
54.8204 32.0
55.2242 35.0
55.6279 26.0
56.0317 28.0
56.4354 29.0
56.8392 21.0
57.2429 23.0
57.6467 18.0
58.0504 30.0
58.4542 28.0
58.858 28.0
59.2617 27.0
59.6655 34.0
60.0692 28.0
60.473 26.0
60.8767 24.0
61.2805 30.0
61.6843 27.0
62.088 29.0
62.4918 33.0
62.8955 36.0
63.2993 26.0
63.703 25.0
64.1068 28.0
64.5105 34.0
64.9143 23.0
65.3181 26.0
65.7218 29.0
66.1256 25.0
66.5293 25.0
66.9331 28.0
67.3368 24.0
67.7406 30.0
68.1444 23.0
68.5481 39.0
68.9519 24.0
69.3556 28.0
69.7594 27.0
70.1631 21.0
70.5669 28.0
70.9706 27.0
71.3744 33.0
71.7782 46.0
72.1819 31.0
72.5857 32.0
72.9894 31.0
73.3932 34.0
73.7969 32.0
74.2007 25.0
74.6045 33.0
75.0082 31.0
75.412 32.0
75.8157 32.0
76.2195 24.0
76.6232 26.0
77.027 29.0
77.4307 19.0
77.8345 31.0
78.2383 29.0
78.642 79.0
79.0458 102.0
79.4495 47.0
79.8533 27.0
80.257 26.0
80.6608 30.0
81.0646 23.0
81.4683 35.0
81.8721 33.0
82.2758 43.0
82.6796 45.0
83.0833 201.0
83.4871 388.0
83.8908 40.0
84.2946 21.0
84.6984 29.0
85.1021 37.0
85.5059 21.0
85.9096 42.0
86.3134 27.0
86.7171 28.0
87.1209 28.0
87.5247 34.0
87.9284 28.0
88.3322 28.0
88.7359 32.0
89.1397 26.0
89.5434 25.0
89.9472 29.0
90.3509 29.0
90.7547 37.0
91.1585 21.0
91.5622 34.0
91.966 32.0
92.3697 33.0
92.7735 36.0
93.1772 31.0
93.581 33.0
93.9848 26.0
94.3885 33.0
94.7923 37.0
95.196 33.0
95.5998 35.0
96.0035 29.0
96.4073 25.0
96.811 15.0
97.2148 34.0
97.6186 36.0
98.0223 22.0
98.4261 28.0
98.8298 30.0
99.2336 35.0
99.6373 34.0
100.041 28.0
100.445 35.0
100.849 32.0
101.252 28.0
101.656 28.0
102.06 21.0
102.464 45.0
102.867 39.0
103.271 22.0
103.675 28.0
104.079 29.0
104.482 30.0
104.886 38.0
105.29 28.0
105.694 32.0
106.097 28.0
106.501 43.0
106.905 29.0
107.309 32.0
107.712 23.0
108.116 30.0
108.52 27.0
108.924 26.0
109.327 37.0
109.731 32.0
110.135 32.0
110.539 36.0
110.943 34.0
111.346 36.0
111.75 30.0
112.154 33.0
112.558 31.0
112.961 26.0
113.365 28.0
113.769 34.0
114.173 28.0
114.576 30.0
114.98 30.0
115.384 28.0
115.788 46.0
116.191 34.0
116.595 24.0
116.999 29.0
117.403 33.0
117.806 31.0
118.21 34.0
118.614 34.0
119.018 34.0
119.421 38.0
119.825 23.0
120.229 35.0
120.633 28.0
121.036 29.0
121.44 26.0
121.844 41.0
122.248 42.0
122.651 36.0
123.055 50.0
123.459 58.0
123.863 87.0
124.266 270.0
124.67 3208.0
125.074 2815.0
125.478 148.0
125.881 76.0
126.285 55.0
126.689 45.0
127.093 41.0
127.497 46.0
127.9 34.0
128.304 31.0
128.708 28.0
129.112 28.0
129.515 35.0
129.919 41.0
129.998 28.0

File: w6933r_2theta
45.01000 1.0
45.05000 0.0
45.09000 4.0
45.13000 2.0
45.17000 4.0
45.21000 0.0
45.25000 2.0
45.29000 3.0
45.33000 3.0
45.37000 0.0
45.41000 4.0
45.45000 0.0
45.49000 2.0
45.53000 2.0
45.57000 0.0
45.61000 4.0
45.65000 1.0
45.69000 3.0
45.73000 1.0
45.77000 1.0
45.81000 2.0
45.85000 3.0
45.89000 2.0
45.93000 2.0
45.97000 2.0
46.01000 3.0
46.05000 1.0
46.09000 3.0
46.13000 1.0
46.17000 3.0
46.21000 3.0
46.25000 1.0
46.29000 3.0
46.33000 1.0
46.37000 2.0
46.41000 3.0
46.45000 0.0
46.49000 3.0
46.53000 2.0
46.57000 1.0
46.61000 2.0
46.65000 2.0
46.69000 3.0
46.73000 5.0
46.77000 1.0
46.81000 5.0
46.85000 0.0
46.89000 0.0
46.93000 1.0
46.97000 1.0
47.01000 3.0
47.05000 2.0
47.09000 1.0
47.13000 1.0
47.17000 1.0
47.21000 2.0
47.25000 2.0
47.29000 2.0
47.33000 2.0
47.37000 2.0
47.41000 0.0
47.45000 2.0
47.49000 0.0
47.53000 1.0
47.57000 5.0
47.61000 1.0
47.65000 2.0
47.69000 1.0
47.73000 1.0
47.77000 0.0
47.81000 2.0
47.85000 1.0
47.89000 1.0
47.93000 1.0
47.97000 1.0
48.01000 0.0
48.05000 0.0
48.09000 0.0
48.13000 2.0
48.17000 3.0
48.21000 3.0
48.25000 0.0
48.29000 1.0
48.33000 1.0
48.37000 1.0
48.41000 2.0
48.45000 3.0
48.49000 2.0
48.53000 3.0
48.57000 3.0
48.61000 1.0
48.65000 1.0
48.69000 4.0
48.73000 2.0
48.77000 1.0
48.81000 4.0
48.85000 1.0
48.89000 4.0
48.93000 0.0
48.97000 5.0
49.01000 0.0
49.05000 1.0
49.09000 1.0
49.13000 2.0
49.17000 2.0
49.21000 2.0
49.25000 2.0
49.29000 2.0
49.33000 3.0
49.37000 5.0
49.41000 5.0
49.45000 5.0
49.49000 7.0
49.53000 8.0
49.57000 13.0
49.61000 9.0
49.65000 17.0
49.69000 14.0
49.73000 32.0
49.77000 37.0
49.81000 46.0
49.85000 61.0
49.89000 61.0
49.93000 79.0
49.97000 119.0
50.01000 196.0
50.05000 263.0
50.09000 270.0
50.13000 245.0
50.17000 175.0
50.21000 157.0
50.25000 132.0
50.29000 82.0
50.33000 55.0
50.37000 36.0
50.41000 25.0
50.45000 14.0
50.49000 19.0
50.53000 10.0
50.57000 11.0
50.61000 9.0
50.65000 4.0
50.69000 7.0
50.73000 8.0
50.77000 4.0
50.81000 5.0
50.85000 9.0
50.89000 5.0
50.93000 0.0
50.97000 3.0
51.01000 5.0
51.05000 5.0
51.09000 4.0
51.13000 2.0
51.17000 5.0
51.21000 2.0
51.25000 3.0
51.29000 3.0
51.33000 4.0
51.37000 4.0
51.41000 7.0
51.45000 10.0
51.49000 5.0
51.53000 9.0
51.57000 6.0
51.61000 14.0
51.65000 6.0
51.69000 11.0
51.73000 9.0
51.77000 9.0
51.81000 13.0
51.85000 19.0
51.89000 21.0
51.93000 28.0
51.97000 25.0
52.01000 42.0
52.05000 38.0
52.09000 44.0
52.13000 47.0
52.17000 60.0
52.21000 75.0
52.25000 126.0
52.29000 240.0
52.33000 316.0
52.37000 321.0
52.41000 424.0
52.45000 729.0
52.49000 1992.0
52.53000 21479.0
52.57000 10068.0
52.61000 1776.0
52.65000 3466.0
52.69000 15102.0
52.73000 1969.0
52.77000 694.0
52.81000 482.0
52.85000 346.0
52.89000 247.0
52.93000 201.0
52.97000 153.0
53.01000 86.0
53.05000 72.0
53.09000 63.0
53.13000 40.0
53.17000 47.0
53.21000 32.0
53.25000 23.0
53.29000 37.0
53.33000 37.0
53.37000 29.0
53.41000 24.0
53.45000 22.0
53.49000 23.0
53.53000 15.0
53.57000 14.0
53.61000 14.0
53.65000 16.0
53.69000 16.0
53.73000 9.0
53.77000 11.0
53.81000 5.0
53.85000 7.0
53.89000 7.0
53.93000 6.0
53.97000 8.0
54.01000 12.0
54.05000 6.0
54.09000 11.0
54.13000 7.0
54.17000 3.0
54.21000 7.0
54.25000 5.0
54.29000 5.0
54.33000 4.0
54.37000 3.0
54.41000 3.0
54.45000 1.0
54.49000 2.0
54.53000 3.0
54.57000 5.0
54.61000 2.0
54.65000 5.0
54.69000 2.0
54.73000 3.0
54.77000 1.0
54.81000 2.0
54.85000 1.0
54.89000 5.0
54.93000 4.0
54.97000 1.0
54.99000 4.0