Folder: DataAnalysis/data/W6788m/XRD_Omega

Note: data/W6788m/XRD_Omega/W6788m_omega_peaks.TXT
No.	Label	Pos. [記mega]	FWHM Left [記mega]	Area [cts*記mega]	Backgr.[cts]	d-spacing [魔	Height [cts]	Shape Left	Status	Integral Breadth [記mega]	FWHM Right [記mega]	Shape Right	Obs. Lorentz B [記mega]	Obs. Gauss B [記mega]	Instr. Lorentz B [記mega]	Instr. Gauss B [記mega]	Crystallite Size [魔	Micro Strain [%]	Crystallite Size only [魔	Micro Strain only [%]
1	Cr2O3 3 0 0	32,9389(4)	0,64(1)	5072,68	1180,87	 	6226(218)	0,50(5)	Included	0,814779	 	 	0,439407	0,504209	0,074041	0,062724	251,929200	0,738391	121,447900	1,118612

Note: README.md
# Methods
## RSM analysis

Check out [doc](documentation/RSM.md)

File: W6788m_Cr2O3_scan_omega_2deg_step_0.002deg0_15.xy
31.98690 1289.0
31.99490 1356.0
32.00290 1448.0
32.01090 1381.0
32.01890 1406.0
32.02690 1467.0
32.03490 1491.0
32.04290 1436.0
32.05090 1497.0
32.05890 1586.0
32.06690 1574.0
32.07490 1598.0
32.08290 1654.0
32.09090 1652.0
32.09890 1771.0
32.10690 1680.0
32.11490 1635.0
32.12290 1701.0
32.13090 1738.0
32.13890 1845.0
32.14690 1801.0
32.15490 1876.0
32.16290 1787.0
32.17090 1988.0
32.17890 1986.0
32.18690 2002.0
32.19490 2066.0
32.20290 2106.0
32.21090 2183.0
32.21890 2212.0
32.22690 2137.0
32.23490 2244.0
32.24290 2305.0
32.25090 2329.0
32.25890 2461.0
32.26690 2381.0
32.27490 2477.0
32.28290 2520.0
32.29090 2620.0
32.29890 2668.0
32.30690 2693.0
32.31490 2761.0
32.32290 2826.0
32.33090 2921.0
32.33890 2975.0
32.34690 3067.0
32.35490 3016.0
32.36290 3043.0
32.37090 3311.0
32.37890 3294.0
32.38690 3344.0
32.39490 3461.0
32.40290 3484.0
32.41090 3613.0
32.41890 3611.0
32.42690 3793.0
32.43490 3750.0
32.44290 3849.0
32.45090 3895.0
32.45890 4064.0
32.46690 4119.0
32.47490 4145.0
32.48290 4203.0
32.49090 4402.0
32.49890 4533.0
32.50690 4747.0
32.51490 4715.0
32.52290 4837.0
32.53090 4920.0
32.53890 5117.0
32.54690 5250.0
32.55490 5148.0
32.56290 5409.0
32.57090 5474.0
32.57890 5680.0
32.58690 5882.0
32.59490 5997.0
32.60290 5848.0
32.61090 6101.0
32.61890 6148.0
32.62690 6541.0
32.63490 6540.0
32.64290 6862.0
32.65090 6780.0
32.65890 6862.0
32.66690 6998.0
32.67490 7287.0
32.68290 7436.0
32.69090 7301.0
32.69890 7530.0
32.70690 7545.0
32.71490 7831.0
32.72290 7920.0
32.73090 8074.0
32.73890 8472.0
32.74690 8325.0
32.75490 8520.0
32.76290 8928.0
32.77090 8833.0
32.77890 9093.0
32.78690 8984.0
32.79490 9256.0
32.80290 9410.0
32.81090 9317.0
32.81890 9545.0
32.82690 9768.0
32.83490 10000.0
32.84290 9881.0
32.85090 10044.0
32.85890 10124.0
32.86690 9990.0
32.87490 10379.0
32.88290 10477.0
32.89090 10565.0
32.89890 10492.0
32.90690 10774.0
32.91490 10626.0
32.92290 10754.0
32.93090 10895.0
32.93890 10932.0
32.94690 11026.0
32.95490 11254.0
32.96290 11036.0
32.97090 11134.0
32.97890 11075.0
32.98690 11058.0
32.99490 11180.0
33.00290 10993.0
33.01090 11124.0
33.01890 11050.0
33.02690 11153.0
33.03490 10812.0
33.04290 10549.0
33.05090 10599.0
33.05890 10539.0
33.06690 10439.0
33.07490 10224.0
33.08290 10261.0
33.09090 10341.0
33.09890 10089.0
33.10690 9875.0
33.11490 9591.0
33.12290 9696.0
33.13090 9278.0
33.13890 9313.0
33.14690 9192.0
33.15490 8872.0
33.16290 8732.0
33.17090 8579.0
33.17890 8392.0
33.18690 8081.0
33.19490 8094.0
33.20290 7732.0
33.21090 7641.0
33.21890 7508.0
33.22690 7502.0
33.23490 7208.0
33.24290 6950.0
33.25090 6886.0
33.25890 6684.0
33.26690 6607.0
33.27490 6434.0
33.28290 6292.0
33.29090 6179.0
33.29890 5825.0
33.30690 5589.0
33.31490 5462.0
33.32290 5352.0
33.33090 5119.0
33.33890 5042.0
33.34690 4835.0
33.35490 4810.0
33.36290 4725.0
33.37090 4551.0
33.37890 4347.0
33.38690 4253.0
33.39490 4229.0
33.40290 4012.0
33.41090 4045.0
33.41890 3893.0
33.42690 3740.0
33.43490 3661.0
33.44290 3508.0
33.45090 3436.0
33.45890 3419.0
33.46690 3137.0
33.47490 3144.0
33.48290 3096.0
33.49090 2974.0
33.49890 2930.0
33.50690 2854.0
33.51490 2712.0
33.52290 2591.0
33.53090 2643.0
33.53890 2577.0
33.54690 2595.0
33.55490 2419.0
33.56290 2361.0
33.57090 2435.0
33.57890 2354.0
33.58690 2256.0
33.59490 2240.0
33.60290 2163.0
33.61090 2106.0
33.61890 2014.0
33.62690 2099.0
33.63490 1986.0
33.64290 1874.0
33.65090 1995.0
33.65890 1848.0
33.66690 1778.0
33.67490 1833.0
33.68290 1730.0
33.69090 1734.0
33.69890 1663.0
33.70690 1608.0
33.71490 1596.0
33.72290 1542.0
33.73090 1589.0
33.73890 1550.0
33.74690 1469.0
33.75490 1447.0
33.76290 1459.0
33.77090 1420.0
33.77890 1344.0
33.78690 1407.0
33.79490 1303.0
33.80290 1381.0
33.81090 1228.0
33.81890 1272.0
33.82690 1277.0
33.83490 1192.0
33.84290 1207.0
33.85090 1231.0
33.85890 1217.0
33.86690 1152.0
33.87490 1179.0
33.88290 1105.0
33.89090 1135.0
33.89890 1031.0
33.90690 1079.0
33.91490 1069.0
33.92290 1042.0
33.93090 1047.0
33.93890 948.0
33.94690 996.0
33.95490 973.0
33.96290 943.0
33.97090 920.0