Folder: DataAnalysis/data/w6929r/XRD_Omega

Note: data/w6929r/XRD_Omega/W6929r_omega_peaks.TXT
No.	Label	Pos. [記mega]	FWHM Left [記mega]	Area [cts*記mega]	Backgr.[cts]	d-spacing [魔	Height [cts]	Shape Left	Status	Integral Breadth [記mega]	FWHM Right [記mega]	Shape Right	Obs. Lorentz B [記mega]	Obs. Gauss B [記mega]	Instr. Lorentz B [記mega]	Instr. Gauss B [記mega]	Crystallite Size [魔	Micro Strain [%]	Crystallite Size only [魔	Micro Strain only [%]
1	Cr2O3 0 2 4	24,900(1)	0,878(2)	653,85	33,01	 	668(2)	0,137(6)	Included	0,978450	 	 	0,154822	0,876528	0,074608	0,063203	1126,935000	1,727830	97,644250	1,829644

Note: README.md
# Methods
## RSM analysis

Check out [doc](documentation/RSM.md)

File: film_r_scan_omega_4deg_step_0.005deg0_C2.xy
22.94000 34.0
22.95500 40.0
22.97000 31.0
22.98500 39.0
23.00000 37.0
23.01500 39.0
23.03000 34.0
23.04500 33.0
23.06000 37.0
23.07500 30.0
23.09000 32.0
23.10500 33.0
23.12000 38.0
23.13500 32.0
23.15000 33.0
23.16500 35.0
23.18000 50.0
23.19500 37.0
23.21000 42.0
23.22500 33.0
23.24000 34.0
23.25500 32.0
23.27000 38.0
23.28500 45.0
23.30000 30.0
23.31500 31.0
23.33000 35.0
23.34500 41.0
23.36000 40.0
23.37500 38.0
23.39000 35.0
23.40500 43.0
23.42000 30.0
23.43500 40.0
23.45000 36.0
23.46500 40.0
23.48000 70.0
23.49500 44.0
23.51000 52.0
23.52500 37.0
23.54000 45.0
23.55500 41.0
23.57000 53.0
23.58500 58.0
23.60000 36.0
23.61500 46.0
23.63000 48.0
23.64500 52.0
23.66000 55.0
23.67500 48.0
23.69000 42.0
23.70500 56.0
23.72000 72.0
23.73500 61.0
23.75000 55.0
23.76500 51.0
23.78000 70.0
23.79500 91.0
23.81000 66.0
23.82500 73.0
23.84000 76.0
23.85500 62.0
23.87000 86.0
23.88500 69.0
23.90000 111.0
23.91500 81.0
23.93000 99.0
23.94500 106.0
23.96000 89.0
23.97500 84.0
23.99000 109.0
24.00500 107.0
24.02000 153.0
24.03500 121.0
24.05000 118.0
24.06500 134.0
24.08000 146.0
24.09500 144.0
24.11000 149.0
24.12500 150.0
24.14000 168.0
24.15500 154.0
24.17000 192.0
24.18500 207.0
24.20000 232.0
24.21500 198.0
24.23000 258.0
24.24500 256.0
24.26000 237.0
24.27500 284.0
24.29000 272.0
24.30500 295.0
24.32000 317.0
24.33500 312.0
24.35000 318.0
24.36500 400.0
24.38000 366.0
24.39500 385.0
24.41000 387.0
24.42500 461.0
24.44000 462.0
24.45500 427.0
24.47000 466.0
24.48500 536.0
24.50000 594.0
24.51500 596.0
24.53000 590.0
24.54500 595.0
24.56000 623.0
24.57500 636.0
24.59000 671.0
24.60500 752.0
24.62000 717.0
24.63500 729.0
24.65000 755.0
24.66500 811.0
24.68000 798.0
24.69500 835.0
24.71000 867.0
24.72500 945.0
24.74000 922.0
24.75500 966.0
24.77000 901.0
24.78500 968.0
24.80000 987.0
24.81500 955.0
24.83000 1001.0
24.84500 1054.0
24.86000 1053.0
24.87500 965.0
24.89000 1043.0
24.90500 1043.0
24.92000 1057.0
24.93500 1044.0
24.95000 1062.0
24.96500 978.0
24.98000 1082.0
24.99500 1037.0
25.01000 981.0
25.02500 975.0
25.04000 1045.0
25.05500 1028.0
25.07000 972.0
25.08500 939.0
25.10000 910.0
25.11500 974.0
25.13000 902.0
25.14500 921.0
25.16000 871.0
25.17500 862.0
25.19000 942.0
25.20500 815.0
25.22000 778.0
25.23500 776.0
25.25000 788.0
25.26500 751.0
25.28000 703.0
25.29500 739.0
25.31000 601.0
25.32500 616.0
25.34000 577.0
25.35500 523.0
25.37000 489.0
25.38500 435.0
25.40000 471.0
25.41500 394.0
25.43000 401.0
25.44500 374.0
25.46000 367.0
25.47500 345.0
25.49000 326.0
25.50500 325.0
25.52000 285.0
25.53500 273.0
25.55000 280.0
25.56500 265.0
25.58000 260.0
25.59500 231.0
25.61000 222.0
25.62500 199.0
25.64000 199.0
25.65500 161.0
25.67000 178.0
25.68500 161.0
25.70000 160.0
25.71500 190.0
25.73000 148.0
25.74500 106.0
25.76000 127.0
25.77500 125.0
25.79000 140.0
25.80500 111.0
25.82000 111.0
25.83500 113.0
25.85000 95.0
25.86500 87.0
25.88000 94.0
25.89500 103.0
25.91000 89.0
25.92500 77.0
25.94000 80.0
25.95500 81.0
25.97000 78.0
25.98500 60.0
26.00000 70.0
26.01500 68.0
26.03000 57.0
26.04500 58.0
26.06000 63.0
26.07500 62.0
26.09000 55.0
26.10500 41.0
26.12000 54.0
26.13500 50.0
26.15000 43.0
26.16500 38.0
26.18000 50.0
26.19500 57.0
26.21000 42.0
26.22500 42.0
26.24000 41.0
26.25500 45.0
26.27000 55.0
26.28500 54.0
26.30000 35.0
26.31500 39.0
26.33000 36.0
26.34500 42.0
26.36000 48.0
26.37500 46.0
26.39000 39.0
26.40500 42.0
26.42000 33.0
26.43500 46.0
26.45000 33.0
26.46500 37.0
26.48000 34.0
26.49500 32.0
26.51000 31.0
26.52500 29.0
26.54000 34.0
26.55500 29.0
26.57000 27.0
26.58500 28.0
26.60000 35.0
26.61500 30.0
26.63000 33.0
26.64500 36.0
26.66000 28.0
26.67500 33.0
26.69000 32.0
26.70500 35.0
26.72000 28.0
26.73500 29.0
26.75000 31.0
26.76500 21.0
26.78000 29.0
26.79500 28.0
26.81000 25.0
26.82500 36.0
26.84000 32.0
26.85500 31.0
26.87000 34.0
26.88500 30.0
26.90000 39.0