Folder: DataAnalysis/data/w6929r/XRD_2ThetaOmega

Note: data/w6929r/XRD_2ThetaOmega/W6929r_peaks.TXT
No.	Label	Pos. [°2Th.]	FWHM Left [°2Th.]	Area [cts*°2Th.]	Backgr.[cts]	d-spacing [Å]	Height [cts]	Shape Left	Status	Integral Breadth [°2Th.]	FWHM Right [°2Th.]	Shape Right	Obs. Lorentz B [°2Th.]	Obs. Gauss B [°2Th.]	Instr. Lorentz B [°2Th.]	Instr. Gauss B [°2Th.]	Crystallite Size [Å]	Micro Strain [%]	Crystallite Size only [Å]	Micro Strain only [%]
1	Cr2O3 0 2 4	50,0400(5)	0,343(1)	463,00	150,49	1,82132	1269(6)	0,00(1)	Included	0,364824	 	 	0,000892	0,364824	0,074546	0,063154	-1322,545000	0,335912	271,070200	0,335950
2	Al2O3 0 2 4	52,50862(1)	0,03854(3)	14555,20	196,52	1,74135	289139(228)	0,574(1)	Included	0,050340	 	 	0,030811	0,028214	0,074847	0,063409	-2235,049000	-0,050235	31120,650000	0,002798

Note: README.md
# Methods
## RSM analysis

Check out [doc](documentation/RSM.md)

File: scan_2th-om_r2_Cr2O3_45-55deg_PIXscan_5min_C2.xy
45.0025 67.0
45.0369 66.0
45.0714 62.0
45.1059 52.0
45.1403 49.0
45.1748 62.0
45.2093 62.0
45.2437 58.0
45.2782 55.0
45.3127 48.0
45.3471 52.0
45.3816 47.0
45.4161 50.0
45.4505 56.0
45.485 52.0
45.5195 63.0
45.5539 31.0
45.5884 53.0
45.6229 54.0
45.6573 42.0
45.6918 54.0
45.7263 46.0
45.7607 43.0
45.7952 54.0
45.8297 44.0
45.8641 59.0
45.8986 45.0
45.9331 53.0
45.9675 61.0
46.002 62.0
46.0365 48.0
46.0709 44.0
46.1054 59.0
46.1399 53.0
46.1743 54.0
46.2088 61.0
46.2433 52.0
46.2777 54.0
46.3122 48.0
46.3467 51.0
46.3811 64.0
46.4156 53.0
46.4501 58.0
46.4845 66.0
46.519 50.0
46.5535 61.0
46.5879 66.0
46.6224 54.0
46.6569 69.0
46.6913 59.0
46.7258 65.0
46.7603 50.0
46.7947 50.0
46.8292 65.0
46.8637 42.0
46.8981 77.0
46.9326 48.0
46.9671 55.0
47.0015 80.0
47.036 96.0
47.0705 170.0
47.1049 801.0
47.1394 655.0
47.1739 273.0
47.2083 165.0
47.2428 89.0
47.2773 84.0
47.3118 80.0
47.3462 46.0
47.3807 55.0
47.4152 61.0
47.4496 70.0
47.4841 53.0
47.5186 76.0
47.553 69.0
47.5875 61.0
47.622 66.0
47.6564 57.0
47.6909 68.0
47.7254 63.0
47.7598 70.0
47.7943 62.0
47.8288 55.0
47.8632 69.0
47.8977 55.0
47.9322 60.0
47.9666 54.0
48.0011 73.0
48.0356 64.0
48.07 68.0
48.1045 59.0
48.139 64.0
48.1734 56.0
48.2079 69.0
48.2424 75.0
48.2768 64.0
48.3113 69.0
48.3458 74.0
48.3802 67.0
48.4147 58.0
48.4492 75.0
48.4836 52.0
48.5181 56.0
48.5526 74.0
48.587 66.0
48.6215 75.0
48.656 74.0
48.6904 64.0
48.7249 58.0
48.7594 75.0
48.7938 65.0
48.8283 70.0
48.8628 70.0
48.8972 79.0
48.9317 60.0
48.9662 76.0
49.0006 76.0
49.0351 80.0
49.0696 79.0
49.104 89.0
49.1385 85.0
49.173 101.0
49.2074 94.0
49.2419 101.0
49.2764 88.0
49.3108 82.0
49.3453 109.0
49.3798 100.0
49.4142 93.0
49.4487 122.0
49.4832 152.0
49.5176 123.0
49.5521 147.0
49.5866 197.0
49.621 195.0
49.6555 228.0
49.69 241.0
49.7244 345.0
49.7589 368.0
49.7934 466.0
49.8278 557.0
49.8623 692.0
49.8968 876.0
49.9312 1173.0
49.9657 1542.0
50.0002 1818.0
50.0346 2047.0
50.0691 2047.0
50.1036 2038.0
50.138 1891.0
50.1725 1665.0
50.207 1371.0
50.2414 1113.0
50.2759 898.0
50.3104 682.0
50.3448 588.0
50.3793 478.0
50.4138 391.0
50.4482 303.0
50.4827 263.0
50.5172 266.0
50.5516 207.0
50.5861 204.0
50.6206 168.0
50.655 142.0
50.6895 136.0
50.724 155.0
50.7584 123.0
50.7929 120.0
50.8274 135.0
50.8619 123.0
50.8963 127.0
50.9308 105.0
50.9653 117.0
50.9997 135.0
51.0342 134.0
51.0687 127.0
51.1031 157.0
51.1376 147.0
51.1721 156.0
51.2065 141.0
51.241 162.0
51.2755 160.0
51.3099 163.0
51.3444 161.0
51.3789 156.0
51.4133 190.0
51.4478 196.0
51.4823 210.0
51.5167 257.0
51.5512 194.0
51.5857 212.0
51.6201 208.0
51.6546 271.0
51.6891 267.0
51.7235 276.0
51.758 258.0
51.7925 326.0
51.8269 344.0
51.8614 347.0
51.8959 351.0
51.9303 378.0
51.9648 393.0
51.9993 439.0
52.0337 489.0
52.0682 544.0
52.1027 594.0
52.1371 671.0
52.1716 816.0
52.2061 1170.0
52.2405 1913.0
52.275 2254.0
52.3095 2292.0
52.3439 2324.0
52.3784 3070.0
52.4129 5415.0
52.4473 12841.0
52.4818 81246.0
52.5163 256787.0
52.5507 32647.0
52.5852 12979.0
52.6197 38815.0
52.6541 134126.0
52.6886 21810.0
52.7231 5683.0
52.7575 3188.0
52.792 2239.0
52.8265 1588.0
52.8609 1252.0
52.8954 998.0
52.9299 916.0
52.9643 719.0
52.9988 671.0
53.0333 568.0
53.0677 544.0
53.1022 514.0
53.1367 410.0
53.1711 354.0
53.2056 319.0
53.2401 331.0
53.2745 292.0
53.309 278.0
53.3435 274.0
53.3779 268.0
53.4124 180.0
53.4469 201.0
53.4813 178.0
53.5158 176.0
53.5503 173.0
53.5847 136.0
53.6192 121.0
53.6537 128.0
53.6881 136.0
53.7226 122.0
53.7571 119.0
53.7915 115.0
53.826 112.0
53.8605 103.0
53.8949 106.0
53.9294 99.0
53.9639 94.0
53.9983 88.0
54.0328 89.0
54.0673 95.0
54.1017 85.0
54.1362 94.0
54.1707 77.0
54.2051 84.0
54.2396 87.0
54.2741 81.0
54.3085 83.0
54.343 81.0
54.3775 77.0
54.412 80.0
54.4464 83.0
54.4809 80.0
54.5154 82.0
54.5498 70.0
54.5843 68.0
54.6188 83.0
54.6532 64.0
54.6877 66.0
54.7222 76.0
54.7566 65.0
54.7911 68.0
54.8256 81.0
54.86 63.0
54.8945 77.0
54.929 52.0
54.9634 69.0
54.9979 57.0