Folder: DataAnalysis/data/W6904r/XRD_2ThetaOmega

Note: data/W6904r/XRD_2ThetaOmega/W6904r_peaks.TXT
No.	Label	Pos. [°2Th.]	FWHM Left [°2Th.]	Area [cts*°2Th.]	Backgr.[cts]	d-spacing [Å]	Height [cts]	Shape Left	Status	Integral Breadth [°2Th.]	FWHM Right [°2Th.]	Shape Right	Obs. Lorentz B [°2Th.]	Obs. Gauss B [°2Th.]	Instr. Lorentz B [°2Th.]	Instr. Gauss B [°2Th.]	Crystallite Size [Å]	Micro Strain [%]	Crystallite Size only [Å]	Micro Strain only [%]
1	Cr2O3 0 2 4	49,985(1)	0,410(4)	392,40	170,59	1,82319	678(5)	0,76(2)	Included	0,578578	 	 	0,455035	0,232771	0,074540	0,063149	255,953900	0,209710	189,032400	0,482242
2	Al2O3 0 2 4	52,51197(1)	0,05556(3)	23762,12	181,70	1,74125	346749(195)	0,4251(8)	Included	0,068528	 	 	0,031814	0,046351	0,074848	0,063410	-2287,176000	-0,038276	31121,100000	0,002798

Note: README.md
# Methods
## RSM analysis

Check out [doc](documentation/RSM.md)

File: scan_2th-om_r2_Cr2O3_45-55deg_PIXscan_5min_C5.xy
45.0025 125.0
45.0369 137.0
45.0714 107.0
45.1059 146.0
45.1403 149.0
45.1748 124.0
45.2093 119.0
45.2437 134.0
45.2782 132.0
45.3127 129.0
45.3471 130.0
45.3816 117.0
45.4161 125.0
45.4505 127.0
45.485 126.0
45.5195 138.0
45.5539 117.0
45.5884 116.0
45.6229 120.0
45.6573 117.0
45.6918 121.0
45.7263 126.0
45.7607 107.0
45.7952 118.0
45.8297 132.0
45.8641 117.0
45.8986 98.0
45.9331 118.0
45.9675 121.0
46.002 114.0
46.0365 135.0
46.0709 108.0
46.1054 109.0
46.1399 94.0
46.1743 113.0
46.2088 107.0
46.2433 118.0
46.2777 125.0
46.3122 120.0
46.3467 131.0
46.3811 107.0
46.4156 137.0
46.4501 115.0
46.4845 132.0
46.519 131.0
46.5535 115.0
46.5879 145.0
46.6224 112.0
46.6569 139.0
46.6913 131.0
46.7258 140.0
46.7603 127.0
46.7947 122.0
46.8292 127.0
46.8637 113.0
46.8981 141.0
46.9326 127.0
46.9671 142.0
47.0015 143.0
47.036 171.0
47.0705 445.0
47.1049 1233.0
47.1394 1191.0
47.1739 645.0
47.2083 550.0
47.2428 312.0
47.2773 180.0
47.3118 172.0
47.3462 150.0
47.3807 143.0
47.4152 141.0
47.4496 145.0
47.4841 149.0
47.5186 151.0
47.553 136.0
47.5875 155.0
47.622 138.0
47.6564 127.0
47.6909 113.0
47.7254 132.0
47.7598 117.0
47.7943 130.0
47.8288 124.0
47.8632 122.0
47.8977 124.0
47.9322 147.0
47.9666 139.0
48.0011 133.0
48.0356 150.0
48.07 138.0
48.1045 147.0
48.139 138.0
48.1734 140.0
48.2079 123.0
48.2424 127.0
48.2768 116.0
48.3113 151.0
48.3458 129.0
48.3802 134.0
48.4147 133.0
48.4492 138.0
48.4836 131.0
48.5181 134.0
48.5526 114.0
48.587 156.0
48.6215 120.0
48.656 140.0
48.6904 134.0
48.7249 143.0
48.7594 141.0
48.7938 132.0
48.8283 131.0
48.8628 170.0
48.8972 147.0
48.9317 154.0
48.9662 157.0
49.0006 164.0
49.0351 134.0
49.0696 168.0
49.104 132.0
49.1385 168.0
49.173 180.0
49.2074 163.0
49.2419 171.0
49.2764 184.0
49.3108 193.0
49.3453 202.0
49.3798 190.0
49.4142 200.0
49.4487 200.0
49.4832 242.0
49.5176 273.0
49.5521 270.0
49.5866 295.0
49.621 316.0
49.6555 345.0
49.69 417.0
49.7244 495.0
49.7589 560.0
49.7934 691.0
49.8278 691.0
49.8623 845.0
49.8968 952.0
49.9312 982.0
49.9657 1105.0
50.0002 1103.0
50.0346 1107.0
50.0691 1127.0
50.1036 1031.0
50.138 968.0
50.1725 882.0
50.207 760.0
50.2414 706.0
50.2759 652.0
50.3104 548.0
50.3448 453.0
50.3793 438.0
50.4138 359.0
50.4482 337.0
50.4827 341.0
50.5172 304.0
50.5516 284.0
50.5861 272.0
50.6206 233.0
50.655 213.0
50.6895 213.0
50.724 201.0
50.7584 200.0
50.7929 216.0
50.8274 197.0
50.8619 204.0
50.8963 231.0
50.9308 211.0
50.9653 211.0
50.9997 234.0
51.0342 225.0
51.0687 225.0
51.1031 226.0
51.1376 291.0
51.1721 280.0
51.2065 294.0
51.241 290.0
51.2755 308.0
51.3099 346.0
51.3444 318.0
51.3789 310.0
51.4133 361.0
51.4478 388.0
51.4823 385.0
51.5167 397.0
51.5512 378.0
51.5857 453.0
51.6201 432.0
51.6546 439.0
51.6891 485.0
51.7235 497.0
51.758 508.0
51.7925 534.0
51.8269 541.0
51.8614 573.0
51.8959 654.0
51.9303 685.0
51.9648 702.0
51.9993 812.0
52.0337 787.0
52.0682 841.0
52.1027 1037.0
52.1371 1139.0
52.1716 1400.0
52.2061 1949.0
52.2405 3042.0
52.275 3717.0
52.3095 3701.0
52.3439 3739.0
52.3784 5015.0
52.4129 8732.0
52.4473 22291.0
52.4818 176965.0
52.5163 322750.0
52.5507 95189.0
52.5852 25934.0
52.6197 80121.0
52.6541 162762.0
52.6886 62622.0
52.7231 11659.0
52.7575 5480.0
52.792 3736.0
52.8265 2860.0
52.8609 2291.0
52.8954 1952.0
52.9299 1564.0
52.9643 1316.0
52.9988 1131.0
53.0333 1068.0
53.0677 1025.0
53.1022 880.0
53.1367 784.0
53.1711 732.0
53.2056 655.0
53.2401 599.0
53.2745 540.0
53.309 597.0
53.3435 506.0
53.3779 464.0
53.4124 463.0
53.4469 423.0
53.4813 386.0
53.5158 386.0
53.5503 344.0
53.5847 319.0
53.6192 336.0
53.6537 290.0
53.6881 255.0
53.7226 263.0
53.7571 264.0
53.7915 222.0
53.826 208.0
53.8605 217.0
53.8949 206.0
53.9294 195.0
53.9639 210.0
53.9983 195.0
54.0328 204.0
54.0673 172.0
54.1017 179.0
54.1362 178.0
54.1707 165.0
54.2051 172.0
54.2396 183.0
54.2741 193.0
54.3085 192.0
54.343 168.0
54.3775 139.0
54.412 169.0
54.4464 156.0
54.4809 163.0
54.5154 161.0
54.5498 145.0
54.5843 170.0
54.6188 151.0
54.6532 146.0
54.6877 171.0
54.7222 142.0
54.7566 149.0
54.7911 136.0
54.8256 139.0
54.86 146.0
54.8945 162.0
54.929 138.0
54.9634 142.0
54.9979 133.0