Folder: DataAnalysis/data/W6904r/XRD_Omega

Note: data/W6904r/XRD_Omega/W6904r_omega_peaks.TXT
No.	Label	Pos. [記mega]	FWHM Left [記mega]	Area [cts*記mega]	Backgr.[cts]	d-spacing [魔	Height [cts]	Shape Left	Status	Integral Breadth [記mega]	FWHM Right [記mega]	Shape Right	Obs. Lorentz B [記mega]	Obs. Gauss B [記mega]	Instr. Lorentz B [記mega]	Instr. Gauss B [記mega]	Crystallite Size [魔	Micro Strain [%]	Crystallite Size only [魔	Micro Strain only [%]
1	Cr2O3 0 2 4	24,751(2)	0,927(4)	444,75	62,06	 	395(2)	0,38(1)	Included	1,125431	 	 	0,471920	0,798924	0,074623	0,063215	227,461200	1,583735	84,593340	2,124356

Note: README.md
# Methods
## RSM analysis

Check out [doc](documentation/RSM.md)

File: scan_omega_4deg_step_0.005deg0_C5.xy
22.89700 85.0
22.91200 77.0
22.92700 82.0
22.94200 72.0
22.95700 80.0
22.97200 83.0
22.98700 68.0
23.00200 65.0
23.01700 78.0
23.03200 70.0
23.04700 85.0
23.06200 70.0
23.07700 64.0
23.09200 81.0
23.10700 74.0
23.12200 75.0
23.13700 66.0
23.15200 78.0
23.16700 82.0
23.18200 91.0
23.19700 71.0
23.21200 73.0
23.22700 75.0
23.24200 72.0
23.25700 82.0
23.27200 82.0
23.28700 71.0
23.30200 84.0
23.31700 69.0
23.33200 85.0
23.34700 76.0
23.36200 73.0
23.37700 83.0
23.39200 70.0
23.40700 96.0
23.42200 85.0
23.43700 99.0
23.45200 75.0
23.46700 79.0
23.48200 89.0
23.49700 98.0
23.51200 95.0
23.52700 105.0
23.54200 80.0
23.55700 85.0
23.57200 99.0
23.58700 90.0
23.60200 112.0
23.61700 98.0
23.63200 105.0
23.64700 95.0
23.66200 98.0
23.67700 108.0
23.69200 125.0
23.70700 104.0
23.72200 107.0
23.73700 117.0
23.75200 117.0
23.76700 96.0
23.78200 139.0
23.79700 129.0
23.81200 134.0
23.82700 149.0
23.84200 136.0
23.85700 131.0
23.87200 136.0
23.88700 147.0
23.90200 160.0
23.91700 163.0
23.93200 149.0
23.94700 176.0
23.96200 180.0
23.97700 173.0
23.99200 184.0
24.00700 201.0
24.02200 178.0
24.03700 183.0
24.05200 224.0
24.06700 234.0
24.08200 249.0
24.09700 205.0
24.11200 241.0
24.12700 251.0
24.14200 263.0
24.15700 260.0
24.17200 259.0
24.18700 280.0
24.20200 301.0
24.21700 317.0
24.23200 343.0
24.24700 341.0
24.26200 290.0
24.27700 341.0
24.29200 339.0
24.30700 364.0
24.32200 348.0
24.33700 386.0
24.35200 361.0
24.36700 416.0
24.38200 397.0
24.39700 434.0
24.41200 410.0
24.42700 371.0
24.44200 418.0
24.45700 443.0
24.47200 460.0
24.48700 448.0
24.50200 508.0
24.51700 479.0
24.53200 492.0
24.54700 524.0
24.56200 559.0
24.57700 579.0
24.59200 525.0
24.60700 515.0
24.62200 569.0
24.63700 591.0
24.65200 580.0
24.66700 604.0
24.68200 626.0
24.69700 600.0
24.71200 606.0
24.72700 647.0
24.74200 651.0
24.75700 648.0
24.77200 619.0
24.78700 619.0
24.80200 672.0
24.81700 659.0
24.83200 665.0
24.84700 702.0
24.86200 660.0
24.87700 731.0
24.89200 685.0
24.90700 684.0
24.92200 739.0
24.93700 690.0
24.95200 658.0
24.96700 623.0
24.98200 618.0
24.99700 641.0
25.01200 656.0
25.02700 609.0
25.04200 590.0
25.05700 554.0
25.07200 538.0
25.08700 529.0
25.10200 488.0
25.11700 418.0
25.13200 442.0
25.14700 432.0
25.16200 390.0
25.17700 404.0
25.19200 367.0
25.20700 380.0
25.22200 343.0
25.23700 341.0
25.25200 343.0
25.26700 322.0
25.28200 311.0
25.29700 300.0
25.31200 273.0
25.32700 252.0
25.34200 247.0
25.35700 207.0
25.37200 228.0
25.38700 217.0
25.40200 225.0
25.41700 214.0
25.43200 211.0
25.44700 206.0
25.46200 191.0
25.47700 176.0
25.49200 184.0
25.50700 168.0
25.52200 186.0
25.53700 175.0
25.55200 160.0
25.56700 159.0
25.58200 164.0
25.59700 152.0
25.61200 146.0
25.62700 172.0
25.64200 123.0
25.65700 137.0
25.67200 111.0
25.68700 130.0
25.70200 133.0
25.71700 127.0
25.73200 95.0
25.74700 105.0
25.76200 116.0
25.77700 106.0
25.79200 123.0
25.80700 106.0
25.82200 100.0
25.83700 100.0
25.85200 105.0
25.86700 108.0
25.88200 92.0
25.89700 95.0
25.91200 73.0
25.92700 87.0
25.94200 97.0
25.95700 96.0
25.97200 91.0
25.98700 102.0
26.00200 92.0
26.01700 96.0
26.03200 87.0
26.04700 87.0
26.06200 96.0
26.07700 94.0
26.09200 91.0
26.10700 88.0
26.12200 84.0
26.13700 66.0
26.15200 73.0
26.16700 70.0
26.18200 68.0
26.19700 74.0
26.21200 77.0
26.22700 70.0
26.24200 86.0
26.25700 81.0
26.27200 83.0
26.28700 84.0
26.30200 60.0
26.31700 83.0
26.33200 78.0
26.34700 62.0
26.36200 77.0
26.37700 71.0
26.39200 59.0
26.40700 59.0
26.42200 71.0
26.43700 80.0
26.45200 63.0
26.46700 61.0
26.48200 64.0
26.49700 66.0
26.51200 75.0
26.52700 57.0
26.54200 74.0
26.55700 69.0
26.57200 61.0
26.58700 66.0
26.60200 66.0
26.61700 74.0
26.63200 70.0
26.64700 79.0
26.66200 61.0
26.67700 77.0
26.69200 64.0
26.70700 53.0
26.72200 63.0
26.73700 68.0
26.75200 58.0
26.76700 70.0
26.78200 60.0
26.79700 62.0
26.81200 60.0
26.82700 71.0
26.84200 69.0
26.85700 74.0