Folder: DataAnalysis/data/w6931a/XRD_Omega

Note: data/w6931a/XRD_Omega/W6931a_omega_peaks.TXT
No.	Label	Pos. [記mega]	FWHM Left [記mega]	Area [cts*記mega]	Backgr.[cts]	d-spacing [魔	Height [cts]	Shape Left	Status	Integral Breadth [記mega]	FWHM Right [記mega]	Shape Right	Obs. Lorentz B [記mega]	Obs. Gauss B [記mega]	Instr. Lorentz B [記mega]	Instr. Gauss B [記mega]	Crystallite Size [魔	Micro Strain [%]	Crystallite Size only [魔	Micro Strain only [%]
1	Cr2O3 1 1 0	17,6115(4)	0,645(1)	3146,42	47,52	 	3896(6)	0,464(2)	Included	0,807565	 	 	0,406514	0,522214	0,075495	0,063952	269,841400	1,459830	119,247000	2,109837

Note: README.md
# Methods
## RSM analysis

Check out [doc](documentation/RSM.md)

File: film_a_scan_omega_4deg_step_0.005deg0.xy
15.65070 50.0
15.66570 44.0
15.68070 63.0
15.69570 50.0
15.71070 62.0
15.72570 52.0
15.74070 53.0
15.75570 61.0
15.77070 66.0
15.78570 72.0
15.80070 77.0
15.81570 58.0
15.83070 72.0
15.84570 65.0
15.86070 71.0
15.87570 65.0
15.89070 71.0
15.90570 92.0
15.92070 75.0
15.93570 84.0
15.95070 77.0
15.96570 60.0
15.98070 78.0
15.99570 87.0
16.01070 85.0
16.02570 81.0
16.04070 107.0
16.05570 110.0
16.07070 102.0
16.08570 94.0
16.10070 99.0
16.11570 96.0
16.13070 110.0
16.14570 103.0
16.16070 103.0
16.17570 118.0
16.19070 126.0
16.20570 129.0
16.22070 138.0
16.23570 132.0
16.25070 138.0
16.26570 140.0
16.28070 123.0
16.29570 167.0
16.31070 178.0
16.32570 162.0
16.34070 185.0
16.35570 177.0
16.37070 171.0
16.38570 156.0
16.40070 175.0
16.41570 198.0
16.43070 236.0
16.44570 240.0
16.46070 215.0
16.47570 235.0
16.49070 232.0
16.50570 234.0
16.52070 246.0
16.53570 242.0
16.55070 288.0
16.56570 276.0
16.58070 267.0
16.59570 292.0
16.61070 324.0
16.62570 367.0
16.64070 318.0
16.65570 323.0
16.67070 406.0
16.68570 382.0
16.70070 373.0
16.71570 405.0
16.73070 403.0
16.74570 471.0
16.76070 455.0
16.77570 471.0
16.79070 525.0
16.80570 537.0
16.82070 519.0
16.83570 548.0
16.85070 623.0
16.86570 661.0
16.88070 691.0
16.89570 730.0
16.91070 721.0
16.92570 774.0
16.94070 816.0
16.95570 856.0
16.97070 863.0
16.98570 948.0
17.00070 957.0
17.01570 995.0
17.03070 1040.0
17.04570 1125.0
17.06070 1167.0
17.07570 1253.0
17.09070 1251.0
17.10570 1338.0
17.12070 1492.0
17.13570 1506.0
17.15070 1547.0
17.16570 1604.0
17.18070 1759.0
17.19570 1840.0
17.21070 2042.0
17.22570 2060.0
17.24070 2198.0
17.25570 2344.0
17.27070 2419.0
17.28570 2555.0
17.30070 2623.0
17.31570 2854.0
17.33070 2962.0
17.34570 3036.0
17.36070 3231.0
17.37570 3369.0
17.39070 3587.0
17.40570 3830.0
17.42070 3867.0
17.43570 4086.0
17.45070 4202.0
17.46570 4474.0
17.48070 4602.0
17.49570 4902.0
17.51070 5106.0
17.52570 5307.0
17.54070 5518.0
17.55570 5754.0
17.57070 6224.0
17.58570 6797.0
17.60070 7558.0
17.61570 8059.0
17.63070 7837.0
17.64570 7565.0
17.66070 7303.0
17.67570 7031.0
17.69070 6721.0
17.70570 6090.0
17.72070 5973.0
17.73570 5424.0
17.75070 5287.0
17.76570 4827.0
17.78070 4561.0
17.79570 4323.0
17.81070 4271.0
17.82570 3994.0
17.84070 3772.0
17.85570 3598.0
17.87070 3422.0
17.88570 3407.0
17.90070 3230.0
17.91570 2976.0
17.93070 2902.0
17.94570 2699.0
17.96070 2607.0
17.97570 2492.0
17.99070 2366.0
18.00570 2172.0
18.02070 2117.0
18.03570 1938.0
18.05070 1917.0
18.06570 1727.0
18.08070 1726.0
18.09570 1571.0
18.11070 1495.0
18.12570 1347.0
18.14070 1346.0
18.15570 1333.0
18.17070 1211.0
18.18570 1201.0
18.20070 1186.0
18.21570 1031.0
18.23070 1024.0
18.24570 919.0
18.26070 906.0
18.27570 898.0
18.29070 817.0
18.30570 811.0
18.32070 817.0
18.33570 728.0
18.35070 683.0
18.36570 656.0
18.38070 652.0
18.39570 601.0
18.41070 592.0
18.42570 529.0
18.44070 515.0
18.45570 533.0
18.47070 498.0
18.48570 480.0
18.50070 424.0
18.51570 415.0
18.53070 435.0
18.54570 405.0
18.56070 352.0
18.57570 380.0
18.59070 347.0
18.60570 311.0
18.62070 313.0
18.63570 284.0
18.65070 296.0
18.66570 297.0
18.68070 262.0
18.69570 248.0
18.71070 225.0
18.72570 236.0
18.74070 216.0
18.75570 240.0
18.77070 186.0
18.78570 209.0
18.80070 168.0
18.81570 205.0
18.83070 186.0
18.84570 180.0
18.86070 160.0
18.87570 163.0
18.89070 166.0
18.90570 177.0
18.92070 161.0
18.93570 128.0
18.95070 156.0
18.96570 133.0
18.98070 133.0
18.99570 122.0
19.01070 119.0
19.02570 125.0
19.04070 83.0
19.05570 98.0
19.07070 115.0
19.08570 108.0
19.10070 99.0
19.11570 108.0
19.13070 84.0
19.14570 74.0
19.16070 89.0
19.17570 107.0
19.19070 89.0
19.20570 75.0
19.22070 73.0
19.23570 77.0
19.25070 84.0
19.26570 72.0
19.28070 76.0
19.29570 63.0
19.31070 65.0
19.32570 72.0
19.34070 58.0
19.35570 65.0
19.37070 82.0
19.38570 67.0
19.40070 53.0
19.41570 71.0
19.43070 49.0
19.44570 59.0
19.46070 68.0
19.47570 55.0
19.49070 51.0
19.50570 50.0
19.52070 57.0
19.53570 48.0
19.55070 50.0
19.56570 47.0
19.58070 53.0
19.59570 37.0
19.61070 45.0