Folder: DataAnalysis/data/w6931a/XRD_2ThetaOmega

Note: data/w6931a/XRD_2ThetaOmega/W6931a_peaks.TXT
No.	Label	Pos. [°2Th.]	FWHM Left [°2Th.]	Area [cts*°2Th.]	Backgr.[cts]	d-spacing [Å]	Height [cts]	Shape Left	Status	Integral Breadth [°2Th.]	FWHM Right [°2Th.]	Shape Right	Obs. Lorentz B [°2Th.]	Obs. Gauss B [°2Th.]	Instr. Lorentz B [°2Th.]	Instr. Gauss B [°2Th.]	Crystallite Size [Å]	Micro Strain [%]	Crystallite Size only [Å]	Micro Strain only [%]
1	Cr2O3 1 1 0	35,7085(1)	0,1349(4)	2527,40	114,38	2,51242	14595(36)	0,529(3)	Included	0,173166	 	 	0,098403	0,103199	0,073955	0,062652	3793,265000	0,111085	943,917500	0,133085
2	Al2O3 1 1 0	37,70160(1)	0,03297(3)	8824,72	129,11	2,38405	211051(208)	0,498(1)	Included	0,041813	 	 	0,022495	0,025918	0,073930	0,062631	-1813,399000	-0,072868	29492,090000	0,004042

Note: README.md
# Methods
## RSM analysis

Check out [doc](documentation/RSM.md)

File: scan_2th-om_a_Cr2O3_30-40deg_PIXscan_4min.xy
30.0025 53.0
30.0369 51.0
30.0714 40.0
30.1059 58.0
30.1403 63.0
30.1748 67.0
30.2093 48.0
30.2437 54.0
30.2782 52.0
30.3127 51.0
30.3471 57.0
30.3816 53.0
30.4161 50.0
30.4505 38.0
30.485 50.0
30.5195 50.0
30.5539 54.0
30.5884 55.0
30.6229 63.0
30.6573 49.0
30.6918 64.0
30.7263 63.0
30.7607 53.0
30.7952 73.0
30.8297 54.0
30.8641 59.0
30.8986 55.0
30.9331 52.0
30.9675 54.0
31.002 53.0
31.0365 51.0
31.0709 44.0
31.1054 56.0
31.1399 57.0
31.1743 51.0
31.2088 61.0
31.2433 49.0
31.2777 30.0
31.3122 54.0
31.3467 50.0
31.3811 67.0
31.4156 37.0
31.4501 47.0
31.4845 44.0
31.519 54.0
31.5535 56.0
31.5879 59.0
31.6224 48.0
31.6569 53.0
31.6913 50.0
31.7258 49.0
31.7603 63.0
31.7947 58.0
31.8292 45.0
31.8637 60.0
31.8981 43.0
31.9326 54.0
31.9671 60.0
32.0015 58.0
32.036 61.0
32.0705 71.0
32.1049 74.0
32.1394 119.0
32.1739 108.0
32.2083 82.0
32.2428 82.0
32.2773 61.0
32.3118 81.0
32.3462 54.0
32.3807 61.0
32.4152 52.0
32.4496 58.0
32.4841 57.0
32.5186 66.0
32.553 35.0
32.5875 50.0
32.622 58.0
32.6564 51.0
32.6909 50.0
32.7254 67.0
32.7598 52.0
32.7943 50.0
32.8288 50.0
32.8632 69.0
32.8977 48.0
32.9322 68.0
32.9666 65.0
33.0011 56.0
33.0356 44.0
33.07 67.0
33.1045 58.0
33.139 57.0
33.1734 55.0
33.2079 54.0
33.2424 62.0
33.2768 54.0
33.3113 65.0
33.3458 54.0
33.3802 49.0
33.4147 57.0
33.4492 68.0
33.4836 58.0
33.5181 61.0
33.5526 58.0
33.587 49.0
33.6215 56.0
33.656 55.0
33.6904 60.0
33.7249 80.0
33.7594 62.0
33.7938 59.0
33.8283 81.0
33.8628 95.0
33.8972 127.0
33.9317 594.0
33.9662 454.0
34.0006 111.0
34.0351 67.0
34.0696 85.0
34.104 88.0
34.1385 62.0
34.173 81.0
34.2074 79.0
34.2419 75.0
34.2764 72.0
34.3108 54.0
34.3453 66.0
34.3798 70.0
34.4142 62.0
34.4487 84.0
34.4832 80.0
34.5176 74.0
34.5521 61.0
34.5866 78.0
34.621 86.0
34.6555 101.0
34.69 84.0
34.7244 87.0
34.7589 85.0
34.7934 91.0
34.8278 106.0
34.8623 107.0
34.8968 111.0
34.9312 111.0
34.9657 120.0
35.0002 134.0
35.0346 137.0
35.0691 128.0
35.1036 148.0
35.138 139.0
35.1725 156.0
35.207 201.0
35.2414 193.0
35.2759 234.0
35.3104 268.0
35.3448 299.0
35.3793 334.0
35.4138 470.0
35.4482 573.0
35.4827 708.0
35.5172 1077.0
35.5516 1675.0
35.5861 2740.0
35.6206 5258.0
35.655 10191.0
35.6895 16710.0
35.724 17085.0
35.7584 14165.0
35.7929 12612.0
35.8274 8625.0
35.8619 5265.0
35.8963 3262.0
35.9308 2088.0
35.9653 1447.0
35.9997 1079.0
36.0342 875.0
36.0687 772.0
36.1031 668.0
36.1376 513.0
36.1721 418.0
36.2065 393.0
36.241 343.0
36.2755 292.0
36.3099 235.0
36.3444 230.0
36.3789 203.0
36.4133 195.0
36.4478 156.0
36.4823 166.0
36.5167 174.0
36.5512 152.0
36.5857 165.0
36.6201 153.0
36.6546 159.0
36.6891 146.0
36.7235 157.0
36.758 158.0
36.7925 163.0
36.8269 170.0
36.8614 160.0
36.8959 183.0
36.9303 187.0
36.9648 175.0
36.9993 209.0
37.0337 212.0
37.0682 208.0
37.1027 255.0
37.1371 271.0
37.1716 265.0
37.2061 311.0
37.2405 312.0
37.275 346.0
37.3095 418.0
37.3439 458.0
37.3784 456.0
37.4129 501.0
37.4473 631.0
37.4818 895.0
37.5163 1741.0
37.5507 2087.0
37.5852 2252.0
37.6197 3385.0
37.6541 10055.0
37.6886 150415.0
37.7231 68024.0
37.7575 12877.0
37.792 94788.0
37.8265 22309.0
37.8609 3866.0
37.8954 2033.0
37.9299 1316.0
37.9643 975.0
37.9988 755.0
38.0333 696.0
38.0677 549.0
38.1022 470.0
38.1367 407.0
38.1711 344.0
38.2056 318.0
38.2401 302.0
38.2745 224.0
38.309 185.0
38.3435 165.0
38.3779 196.0
38.4124 149.0
38.4469 122.0
38.4813 124.0
38.5158 127.0
38.5503 107.0
38.5847 109.0
38.6192 110.0
38.6537 97.0
38.6881 93.0
38.7226 94.0
38.7571 71.0
38.7915 95.0
38.826 92.0
38.8605 87.0
38.8949 80.0
38.9294 103.0
38.9639 92.0
38.9983 69.0
39.0328 74.0
39.0673 65.0
39.1017 74.0
39.1362 70.0
39.1707 93.0
39.2051 59.0
39.2396 71.0
39.2741 71.0
39.3085 65.0
39.343 66.0
39.3775 62.0
39.412 64.0
39.4464 71.0
39.4809 53.0
39.5154 57.0
39.5498 63.0
39.5843 64.0
39.6188 69.0
39.6532 65.0
39.6877 66.0
39.7222 65.0
39.7566 57.0
39.7911 72.0
39.8256 53.0
39.86 59.0
39.8945 55.0
39.929 46.0
39.9634 62.0
39.9979 66.0