Folder: DataAnalysis/data/W6854r/XRD_2ThetaOmega

Note: data/W6854r/XRD_2ThetaOmega/W6854r_peaks.TXT
No.	Label	Pos. [°2Th.]	FWHM Left [°2Th.]	Area [cts*°2Th.]	Backgr.[cts]	d-spacing [Å]	Height [cts]	Shape Left	Status	Integral Breadth [°2Th.]	FWHM Right [°2Th.]	Shape Right	Obs. Lorentz B [°2Th.]	Obs. Gauss B [°2Th.]	Instr. Lorentz B [°2Th.]	Instr. Gauss B [°2Th.]	Crystallite Size [Å]	Micro Strain [%]	Crystallite Size only [Å]	Micro Strain only [%]
1	Al2O3 0 1 2	25,53006(5)	0,04924(8)	2606,94	21,99	3,48625	45376(52)	0,272(3)	Included	0,057452	 	 	0,017516	0,045552	0,074548	0,063152	-1586,965000	-0,084242	28617,520000	0,006091
2	Al2O3 0 2 4	52,50757(3)	0,0551(1)	2889,59	72,59	1,74139	43054(74)	0,390(2)	Included	0,067116	 	 	0,028727	0,047212	0,074847	0,063409	-2134,065000	-0,037446	31120,510000	0,002798
3	Al2O3 0 3 6	83,1823(2)	0,0651(4)	169,62	12,51	1,16042	2053(7)	0,50(2)	Included	0,082626	 	 	0,044673	0,051043	0,085592	0,072509	-2884,303000	-0,025317	37318,080000	0,001555
4	Al2O3 0 4 8	124,5932(1)	0,0947(5)	1096,06	25,99	0,87003	8157(21)	0,775(5)	Included	0,134374	 	 	0,107577	0,052087	0,144563	0,122436	-5133,473000	-0,025387	60035,610000	0,000725

Note: README.md
# Methods
## RSM analysis

Check out [doc](documentation/RSM.md)

File: W6854r_absolute_2th-om_10-130deg_PIXscan_17min_6.xy
10.0035 19.0
10.4072 31.0
10.811 20.0
11.2147 22.0
11.6185 22.0
12.0222 20.0
12.426 18.0
12.8298 21.0
13.2335 14.0
13.6373 22.0
14.041 21.0
14.4448 17.0
14.8485 15.0
15.2523 17.0
15.656 12.0
16.0598 11.0
16.4636 15.0
16.8673 15.0
17.2711 17.0
17.6748 15.0
18.0786 16.0
18.4823 22.0
18.8861 19.0
19.2899 11.0
19.6936 10.0
20.0974 10.0
20.5011 16.0
20.9049 17.0
21.3086 23.0
21.7124 10.0
22.1161 25.0
22.5199 13.0
22.9237 24.0
23.3274 18.0
23.7312 22.0
24.1349 18.0
24.5387 39.0
24.9424 43.0
25.3462 188.0
25.75 356.0
26.1537 99.0
26.5575 28.0
26.9612 25.0
27.365 15.0
27.7687 9.0
28.1725 10.0
28.5762 20.0
28.98 12.0
29.3838 13.0
29.7875 14.0
30.1913 15.0
30.595 9.0
30.9988 15.0
31.4025 17.0
31.8063 14.0
32.2101 6.0
32.6138 12.0
33.0176 11.0
33.4213 14.0
33.8251 9.0
34.2288 18.0
34.6326 18.0
35.0363 9.0
35.4401 11.0
35.8439 8.0
36.2476 9.0
36.6514 11.0
37.0551 12.0
37.4589 9.0
37.8626 6.0
38.2664 8.0
38.6702 10.0
39.0739 8.0
39.4777 11.0
39.8814 12.0
40.2852 10.0
40.6889 6.0
41.0927 15.0
41.4964 10.0
41.9002 10.0
42.304 18.0
42.7077 9.0
43.1115 14.0
43.5152 12.0
43.919 15.0
44.3227 23.0
44.7265 15.0
45.1303 11.0
45.534 13.0
45.9378 10.0
46.3415 9.0
46.7453 14.0
47.149 77.0
47.5528 16.0
47.9565 16.0
48.3603 14.0
48.7641 7.0
49.1678 15.0
49.5716 17.0
49.9753 23.0
50.3791 18.0
50.7828 23.0
51.1866 19.0
51.5903 27.0
51.9941 76.0
52.3979 758.0
52.8016 512.0
53.2054 132.0
53.6091 59.0
54.0129 58.0
54.4166 26.0
54.8204 18.0
55.2242 22.0
55.6279 12.0
56.0317 18.0
56.4354 19.0
56.8392 21.0
57.2429 13.0
57.6467 11.0
58.0504 14.0
58.4542 8.0
58.858 14.0
59.2617 13.0
59.6655 9.0
60.0692 16.0
60.473 11.0
60.8767 15.0
61.2805 20.0
61.6843 13.0
62.088 8.0
62.4918 11.0
62.8955 6.0
63.2993 12.0
63.703 11.0
64.1068 19.0
64.5105 17.0
64.9143 16.0
65.3181 12.0
65.7218 10.0
66.1256 11.0
66.5293 9.0
66.9331 13.0
67.3368 6.0
67.7406 11.0
68.1444 15.0
68.5481 9.0
68.9519 8.0
69.3556 13.0
69.7594 12.0
70.1631 18.0
70.5669 10.0
70.9706 12.0
71.3744 9.0
71.7782 14.0
72.1819 14.0
72.5857 12.0
72.9894 11.0
73.3932 13.0
73.7969 18.0
74.2007 8.0
74.6045 8.0
75.0082 12.0
75.412 13.0
75.8157 7.0
76.2195 15.0
76.6232 15.0
77.027 9.0
77.4307 9.0
77.8345 8.0
78.2383 12.0
78.642 8.0
79.0458 20.0
79.4495 7.0
79.8533 11.0
80.257 11.0
80.6608 11.0
81.0646 11.0
81.4683 13.0
81.8721 6.0
82.2758 14.0
82.6796 15.0
83.0833 86.0
83.4871 291.0
83.8908 19.0
84.2946 14.0
84.6984 10.0
85.1021 16.0
85.5059 16.0
85.9096 17.0
86.3134 9.0
86.7171 10.0
87.1209 8.0
87.5247 13.0
87.9284 7.0
88.3322 7.0
88.7359 13.0
89.1397 12.0
89.5434 10.0
89.9472 6.0
90.3509 10.0
90.7547 7.0
91.1585 16.0
91.5622 13.0
91.966 7.0
92.3697 15.0
92.7735 14.0
93.1772 11.0
93.581 13.0
93.9848 15.0
94.3885 9.0
94.7923 19.0
95.196 11.0
95.5998 22.0
96.0035 15.0
96.4073 7.0
96.811 14.0
97.2148 14.0
97.6186 17.0
98.0223 12.0
98.4261 13.0
98.8298 9.0
99.2336 16.0
99.6373 12.0
100.041 6.0
100.445 10.0
100.849 16.0
101.252 22.0
101.656 16.0
102.06 10.0
102.464 14.0
102.867 10.0
103.271 12.0
103.675 15.0
104.079 16.0
104.482 13.0
104.886 12.0
105.29 6.0
105.694 18.0
106.097 14.0
106.501 17.0
106.905 8.0
107.309 10.0
107.712 12.0
108.116 15.0
108.52 6.0
108.924 15.0
109.327 16.0
109.731 14.0
110.135 10.0
110.539 11.0
110.943 7.0
111.346 13.0
111.75 11.0
112.154 13.0
112.558 9.0
112.961 10.0
113.365 9.0
113.769 13.0
114.173 11.0
114.576 10.0
114.98 18.0
115.384 13.0
115.788 11.0
116.191 27.0
116.595 18.0
116.999 14.0
117.403 19.0
117.806 15.0
118.21 7.0
118.614 9.0
119.018 14.0
119.421 14.0
119.825 9.0
120.229 11.0
120.633 13.0
121.036 19.0
121.44 11.0
121.844 14.0
122.248 16.0
122.651 18.0
123.055 21.0
123.459 32.0
123.863 32.0
124.266 122.0
124.67 2120.0
125.074 1609.0
125.478 88.0
125.881 42.0
126.285 27.0
126.689 34.0
127.093 16.0
127.497 17.0
127.9 12.0
128.304 23.0
128.708 25.0
129.112 18.0
129.515 21.0
129.919 20.0
129.998 13.0