Folder: DataAnalysis/data/W6784a/XRD_2ThetaOmega

Note: data/W6784a/XRD_2ThetaOmega/W6784a_peaks.TXT
No.	Label	Pos. [°2Th.]	FWHM Left [°2Th.]	Area calc.	Assignment	h	k	l	Multiplicity	F obs.	F calc.	Area [cts*°2Th.]	Derivation	Backgr.[cts]	d-spacing [Å]	Height [cts]	K-A2 / K-A1 Ratio	Matched	Matched by	Rel. Int. [%]	Source	Status	Integral Breadth [°2Th.]
1	Cr2O3 1 1 0	35,6678(4)	0,227(1)	0,00	 	 	 	 	 	0,000000	0,000000	504,27	Pure KA1	13,92	2,51519	1719(8)	0,500	False	 	4,97	Profile fitting	Included	0,293411
2	Al2O3 1 1 0	37,72025(4)	0,04969(8)	0,00	 	 	 	 	 	0,000000	0,000000	2063,85	Pure KA1	13,60	2,38292	34589(63)	0,500	False	 	100,00	Profile fitting	Included	0,059667
3	Cr2O3 2 2 0	75,653(3)	0,53(1)	0,00	 	 	 	 	 	0,000000	0,000000	48,27	Pure KA1	12,54	1,25605	69(1)	0,500	False	 	0,20	Profile fitting	Included	0,702477
4	Al2O3 2 2 0	80,65659(8)	0,0658(2)	0,00	 	 	 	 	 	0,000000	0,000000	729,70	Pure KA1	17,19	1,19026	8645(29)	0,500	False	 	24,99	Profile fitting	Included	0,084403

Note: README.md
# Methods
## RSM analysis

Check out [doc](documentation/RSM.md)

File: W6784a_absolute_2th-om_10-130deg_PIXscan_17min_4.xy
10.0035 23.0
10.4072 18.0
10.811 25.0
11.2147 18.0
11.6185 24.0
12.0222 17.0
12.426 22.0
12.8298 22.0
13.2335 15.0
13.6373 22.0
14.041 20.0
14.4448 12.0
14.8485 11.0
15.2523 22.0
15.656 18.0
16.0598 12.0
16.4636 17.0
16.8673 10.0
17.2711 13.0
17.6748 16.0
18.0786 15.0
18.4823 21.0
18.8861 17.0
19.2899 11.0
19.6936 15.0
20.0974 15.0
20.5011 13.0
20.9049 10.0
21.3086 8.0
21.7124 15.0
22.1161 10.0
22.5199 11.0
22.9237 10.0
23.3274 14.0
23.7312 9.0
24.1349 10.0
24.5387 11.0
24.9424 6.0
25.3462 7.0
25.75 12.0
26.1537 12.0
26.5575 5.0
26.9612 11.0
27.365 13.0
27.7687 12.0
28.1725 15.0
28.5762 4.0
28.98 16.0
29.3838 11.0
29.7875 3.0
30.1913 11.0
30.595 11.0
30.9988 8.0
31.4025 10.0
31.8063 16.0
32.2101 13.0
32.6138 15.0
33.0176 12.0
33.4213 13.0
33.8251 19.0
34.2288 15.0
34.6326 20.0
35.0363 27.0
35.4401 281.0
35.8439 956.0
36.2476 86.0
36.6514 42.0
37.0551 37.0
37.4589 123.0
37.8626 2420.0
38.2664 114.0
38.6702 51.0
39.0739 22.0
39.4777 16.0
39.8814 21.0
40.2852 10.0
40.6889 7.0
41.0927 16.0
41.4964 9.0
41.9002 6.0
42.304 10.0
42.7077 8.0
43.1115 8.0
43.5152 10.0
43.919 14.0
44.3227 22.0
44.7265 14.0
45.1303 15.0
45.534 9.0
45.9378 13.0
46.3415 11.0
46.7453 11.0
47.149 10.0
47.5528 10.0
47.9565 6.0
48.3603 11.0
48.7641 11.0
49.1678 7.0
49.5716 8.0
49.9753 14.0
50.3791 12.0
50.7828 7.0
51.1866 8.0
51.5903 13.0
51.9941 10.0
52.3979 13.0
52.8016 7.0
53.2054 10.0
53.6091 13.0
54.0129 10.0
54.4166 9.0
54.8204 8.0
55.2242 12.0
55.6279 10.0
56.0317 5.0
56.4354 7.0
56.8392 12.0
57.2429 13.0
57.6467 6.0
58.0504 5.0
58.4542 24.0
58.858 11.0
59.2617 4.0
59.6655 7.0
60.0692 12.0
60.473 19.0
60.8767 13.0
61.2805 9.0
61.6843 10.0
62.088 11.0
62.4918 11.0
62.8955 1.0
63.2993 16.0
63.703 8.0
64.1068 12.0
64.5105 12.0
64.9143 3.0
65.3181 14.0
65.7218 16.0
66.1256 12.0
66.5293 10.0
66.9331 15.0
67.3368 11.0
67.7406 7.0
68.1444 12.0
68.5481 4.0
68.9519 8.0
69.3556 14.0
69.7594 17.0
70.1631 12.0
70.5669 11.0
70.9706 16.0
71.3744 11.0
71.7782 10.0
72.1819 19.0
72.5857 14.0
72.9894 10.0
73.3932 8.0
73.7969 15.0
74.2007 10.0
74.6045 16.0
75.0082 22.0
75.412 49.0
75.8157 76.0
76.2195 31.0
76.6232 39.0
77.027 15.0
77.4307 14.0
77.8345 16.0
78.2383 13.0
78.642 11.0
79.0458 13.0
79.4495 24.0
79.8533 19.0
80.257 78.0
80.6608 8175.0
81.0646 120.0
81.4683 41.0
81.8721 31.0
82.2758 26.0
82.6796 21.0
83.0833 20.0
83.4871 15.0
83.8908 15.0
84.2946 20.0
84.6984 16.0
85.1021 11.0
85.5059 9.0
85.9096 10.0
86.3134 12.0
86.7171 17.0
87.1209 11.0
87.5247 20.0
87.9284 9.0
88.3322 15.0
88.7359 6.0
89.1397 9.0
89.5434 12.0
89.9472 12.0
90.3509 14.0
90.7547 13.0
91.1585 17.0
91.5622 11.0
91.966 12.0
92.3697 12.0
92.7735 14.0
93.1772 20.0
93.581 12.0
93.9848 4.0
94.3885 11.0
94.7923 13.0
95.196 13.0
95.5998 10.0
96.0035 15.0
96.4073 5.0
96.811 7.0
97.2148 10.0
97.6186 8.0
98.0223 8.0
98.4261 7.0
98.8298 13.0
99.2336 6.0
99.6373 7.0
100.041 14.0
100.445 16.0
100.849 14.0
101.252 6.0
101.656 11.0
102.06 16.0
102.464 12.0
102.867 14.0
103.271 11.0
103.675 19.0
104.079 8.0
104.482 9.0
104.886 9.0
105.29 3.0
105.694 7.0
106.097 10.0
106.501 9.0
106.905 11.0
107.309 13.0
107.712 8.0
108.116 7.0
108.52 7.0
108.924 8.0
109.327 11.0
109.731 11.0
110.135 8.0
110.539 9.0
110.943 16.0
111.346 10.0
111.75 4.0
112.154 5.0
112.558 12.0
112.961 8.0
113.365 14.0
113.769 12.0
114.173 9.0
114.576 14.0
114.98 4.0
115.384 12.0
115.788 14.0
116.191 10.0
116.595 13.0
116.999 11.0
117.403 5.0
117.806 4.0
118.21 11.0
118.614 10.0
119.018 10.0
119.421 7.0
119.825 11.0
120.229 8.0
120.633 8.0
121.036 9.0
121.44 5.0
121.844 14.0
122.248 7.0
122.651 15.0
123.055 9.0
123.459 2.0
123.863 7.0
124.266 14.0
124.67 7.0
125.074 12.0
125.478 11.0
125.881 11.0
126.285 11.0
126.689 12.0
127.093 8.0
127.497 8.0
127.9 11.0
128.304 13.0
128.708 8.0
129.112 9.0
129.515 18.0
129.919 8.0
129.998 11.0