Folder: DataAnalysis/data/W6906c/XRD_2ThetaOmega

Note: data/W6906c/XRD_2ThetaOmega/W6906c_peaks.TXT
No.	Label	Pos. [°2Th.]	FWHM Left [°2Th.]	Area [cts*°2Th.]	Backgr.[cts]	d-spacing [Å]	Height [cts]	Shape Left	Status	Integral Breadth [°2Th.]	FWHM Right [°2Th.]	Shape Right	Obs. Lorentz B [°2Th.]	Obs. Gauss B [°2Th.]	Instr. Lorentz B [°2Th.]	Instr. Gauss B [°2Th.]	Crystallite Size [Å]	Micro Strain [%]	Crystallite Size only [Å]	Micro Strain only [%]
1	Cr2O3 0 0 6	39,133(5)	0,67(1)	61,81	145,68	2,30006	87(2)	0,0(2)	Included	0,708186	 	 	0,001732	0,708186	0,073933	0,062633	-1297,495000	0,865980	132,786400	0,866077
2	Al2O3 0 0 6	41,61557(3)	0,05131(6)	4209,59	155,89	2,16843	68972(88)	0,326(2)	Included	0,061033	 	 	0,022085	0,045892	0,073977	0,062671	-1819,725000	-0,049005	29857,610000	0,003631

Note: README.md
# Methods
## RSM analysis

Check out [doc](documentation/RSM.md)

File: scan_2th-om_c_Cr2O3_35-45deg_PIXscan_4min_C7.xy
35.0021 110.0
35.0365 117.0
35.071 125.0
35.1055 114.0
35.1399 114.0
35.1744 119.0
35.2089 132.0
35.2433 122.0
35.2778 131.0
35.3123 120.0
35.3467 113.0
35.3812 134.0
35.4157 120.0
35.4501 118.0
35.4846 128.0
35.5191 123.0
35.5535 123.0
35.588 108.0
35.6225 121.0
35.6569 131.0
35.6914 100.0
35.7259 129.0
35.7603 113.0
35.7948 115.0
35.8293 110.0
35.8637 125.0
35.8982 109.0
35.9327 145.0
35.9671 119.0
36.0016 142.0
36.0361 101.0
36.0705 109.0
36.105 153.0
36.1395 133.0
36.1739 142.0
36.2084 113.0
36.2429 117.0
36.2773 129.0
36.3118 117.0
36.3463 133.0
36.3807 128.0
36.4152 117.0
36.4497 120.0
36.4841 130.0
36.5186 144.0
36.5531 127.0
36.5875 126.0
36.622 131.0
36.6565 134.0
36.6909 120.0
36.7254 125.0
36.7599 121.0
36.7943 131.0
36.8288 124.0
36.8633 114.0
36.8977 128.0
36.9322 136.0
36.9667 114.0
37.0011 134.0
37.0356 128.0
37.0701 126.0
37.1045 151.0
37.139 113.0
37.1735 136.0
37.2079 134.0
37.2424 117.0
37.2769 132.0
37.3114 140.0
37.3458 154.0
37.3803 146.0
37.4148 258.0
37.4492 332.0
37.4837 181.0
37.5182 130.0
37.5526 135.0
37.5871 137.0
37.6216 135.0
37.656 131.0
37.6905 131.0
37.725 141.0
37.7594 127.0
37.7939 127.0
37.8284 123.0
37.8628 148.0
37.8973 131.0
37.9318 120.0
37.9662 144.0
38.0007 139.0
38.0352 118.0
38.0696 112.0
38.1041 115.0
38.1386 122.0
38.173 135.0
38.2075 141.0
38.242 130.0
38.2764 127.0
38.3109 133.0
38.3454 140.0
38.3798 144.0
38.4143 132.0
38.4488 144.0
38.4832 160.0
38.5177 138.0
38.5522 158.0
38.5866 167.0
38.6211 184.0
38.6556 179.0
38.69 168.0
38.7245 203.0
38.759 207.0
38.7934 218.0
38.8279 175.0
38.8624 226.0
38.8968 258.0
38.9313 221.0
38.9658 256.0
39.0002 277.0
39.0347 263.0
39.0692 280.0
39.1036 301.0
39.1381 261.0
39.1726 259.0
39.207 270.0
39.2415 267.0
39.276 227.0
39.3104 260.0
39.3449 238.0
39.3794 276.0
39.4138 222.0
39.4483 204.0
39.4828 221.0
39.5172 224.0
39.5517 217.0
39.5862 194.0
39.6206 178.0
39.6551 197.0
39.6896 174.0
39.724 173.0
39.7585 182.0
39.793 161.0
39.8274 161.0
39.8619 151.0
39.8964 159.0
39.9308 142.0
39.9653 144.0
39.9998 134.0
40.0342 150.0
40.0687 150.0
40.1032 137.0
40.1376 139.0
40.1721 152.0
40.2066 136.0
40.241 138.0
40.2755 165.0
40.31 130.0
40.3444 143.0
40.3789 168.0
40.4134 157.0
40.4478 150.0
40.4823 149.0
40.5168 168.0
40.5512 143.0
40.5857 160.0
40.6202 170.0
40.6546 166.0
40.6891 165.0
40.7236 177.0
40.758 177.0
40.7925 153.0
40.827 192.0
40.8615 193.0
40.8959 174.0
40.9304 180.0
40.9649 200.0
40.9993 184.0
41.0338 214.0
41.0683 227.0
41.1027 230.0
41.1372 204.0
41.1717 231.0
41.2061 266.0
41.2406 315.0
41.2751 313.0
41.3095 315.0
41.344 408.0
41.3785 508.0
41.4129 922.0
41.4474 957.0
41.4819 959.0
41.5163 1310.0
41.5508 3272.0
41.5853 31089.0
41.6197 63039.0
41.6542 15310.0
41.6887 12360.0
41.7231 31670.0
41.7576 11820.0
41.7921 1834.0
41.8265 892.0
41.861 683.0
41.8955 490.0
41.9299 446.0
41.9644 359.0
41.9989 338.0
42.0333 315.0
42.0678 231.0
42.1023 286.0
42.1367 217.0
42.1712 210.0
42.2057 198.0
42.2401 182.0
42.2746 160.0
42.3091 199.0
42.3435 188.0
42.378 163.0
42.4125 194.0
42.4469 161.0
42.4814 150.0
42.5159 161.0
42.5503 148.0
42.5848 142.0
42.6193 143.0
42.6537 135.0
42.6882 141.0
42.7227 136.0
42.7571 133.0
42.7916 139.0
42.8261 130.0
42.8605 135.0
42.895 132.0
42.9295 127.0
42.9639 145.0
42.9984 136.0
43.0329 138.0
43.0673 137.0
43.1018 128.0
43.1363 119.0
43.1707 123.0
43.2052 158.0
43.2397 126.0
43.2741 157.0
43.3086 135.0
43.3431 128.0
43.3775 133.0
43.412 136.0
43.4465 109.0
43.4809 129.0
43.5154 143.0
43.5499 122.0
43.5843 151.0
43.6188 132.0
43.6533 150.0
43.6877 129.0
43.7222 159.0
43.7567 124.0
43.7911 129.0
43.8256 136.0
43.8601 136.0
43.8945 164.0
43.929 158.0
43.9635 158.0
43.9979 155.0
44.0324 160.0
44.0669 152.0
44.1013 174.0
44.1358 164.0
44.1703 145.0
44.2047 183.0
44.2392 181.0
44.2737 237.0
44.3081 258.0
44.3426 275.0
44.3771 313.0
44.4116 284.0
44.446 314.0
44.4805 290.0
44.515 246.0
44.5494 239.0
44.5839 220.0
44.6184 190.0
44.6528 177.0
44.6873 174.0
44.7218 177.0
44.7562 145.0
44.7907 167.0
44.8252 161.0
44.8596 153.0
44.8941 147.0
44.9286 150.0
44.963 137.0
44.9975 149.0