Folder: DataAnalysis/data/W6906c/XRD_Omega

Note: data/W6906c/XRD_Omega/W6906c_omega_peaks.TXT
No.	Label	Pos. [記mega]	FWHM Left [記mega]	Area [cts*記mega]	Backgr.[cts]	d-spacing [魔	Height [cts]	Shape Left	Status	Integral Breadth [記mega]	FWHM Right [記mega]	Shape Right	Obs. Lorentz B [記mega]	Obs. Gauss B [記mega]	Instr. Lorentz B [記mega]	Instr. Gauss B [記mega]	Crystallite Size [魔	Micro Strain [%]	Crystallite Size only [魔	Micro Strain only [%]
1	Cr2O3 0 0 6	19,428(1)	0,204(3)	50,21	69,56	 	215(3)	0,23(4)	Included	0,234001	 	 	0,059846	0,193681	0,075243	0,063739	-5816,581000	0,466186	489,597400	0,466238

Note: README.md
# Methods
## RSM analysis

Check out [doc](documentation/RSM.md)

File: scan_omega_4deg_step_0.005deg0_C7_3.xy
17.46110 65.0
17.47610 63.0
17.49110 53.0
17.50610 73.0
17.52110 73.0
17.53610 61.0
17.55110 59.0
17.56610 71.0
17.58110 67.0
17.59610 59.0
17.61110 69.0
17.62610 73.0
17.64110 55.0
17.65610 70.0
17.67110 59.0
17.68610 82.0
17.70110 55.0
17.71610 67.0
17.73110 54.0
17.74610 55.0
17.76110 77.0
17.77610 86.0
17.79110 69.0
17.80610 81.0
17.82110 72.0
17.83610 59.0
17.85110 79.0
17.86610 61.0
17.88110 63.0
17.89610 58.0
17.91110 70.0
17.92610 75.0
17.94110 74.0
17.95610 57.0
17.97110 57.0
17.98610 74.0
18.00110 63.0
18.01610 73.0
18.03110 82.0
18.04610 68.0
18.06110 61.0
18.07610 63.0
18.09110 69.0
18.10610 80.0
18.12110 59.0
18.13610 75.0
18.15110 72.0
18.16610 66.0
18.18110 77.0
18.19610 69.0
18.21110 54.0
18.22610 59.0
18.24110 72.0
18.25610 76.0
18.27110 68.0
18.28610 65.0
18.30110 80.0
18.31610 77.0
18.33110 75.0
18.34610 69.0
18.36110 60.0
18.37610 60.0
18.39110 73.0
18.40610 61.0
18.42110 59.0
18.43610 64.0
18.45110 78.0
18.46610 69.0
18.48110 70.0
18.49610 74.0
18.51110 74.0
18.52610 67.0
18.54110 64.0
18.55610 64.0
18.57110 72.0
18.58610 74.0
18.60110 83.0
18.61610 75.0
18.63110 69.0
18.64610 73.0
18.66110 76.0
18.67610 65.0
18.69110 67.0
18.70610 87.0
18.72110 88.0
18.73610 66.0
18.75110 84.0
18.76610 69.0
18.78110 75.0
18.79610 62.0
18.81110 61.0
18.82610 69.0
18.84110 71.0
18.85610 70.0
18.87110 78.0
18.88610 65.0
18.90110 64.0
18.91610 71.0
18.93110 77.0
18.94610 74.0
18.96110 85.0
18.97610 71.0
18.99110 87.0
19.00610 83.0
19.02110 83.0
19.03610 76.0
19.05110 74.0
19.06610 90.0
19.08110 98.0
19.09610 76.0
19.11110 88.0
19.12610 93.0
19.14110 84.0
19.15610 94.0
19.17110 92.0
19.18610 99.0
19.20110 79.0
19.21610 86.0
19.23110 100.0
19.24610 101.0
19.26110 95.0
19.27610 102.0
19.29110 110.0
19.30610 173.0
19.32110 279.0
19.33610 291.0
19.35110 279.0
19.36610 329.0
19.38110 325.0
19.39610 319.0
19.41110 331.0
19.42610 331.0
19.44110 358.0
19.45610 359.0
19.47110 292.0
19.48610 322.0
19.50110 312.0
19.51610 317.0
19.53110 286.0
19.54610 294.0
19.56110 326.0
19.57610 222.0
19.59110 105.0
19.60610 88.0
19.62110 103.0
19.63610 85.0
19.65110 102.0
19.66610 90.0
19.68110 85.0
19.69610 89.0
19.71110 87.0
19.72610 85.0
19.74110 80.0
19.75610 80.0
19.77110 72.0
19.78610 91.0
19.80110 95.0
19.81610 62.0
19.83110 86.0
19.84610 97.0
19.86110 70.0
19.87610 74.0
19.89110 69.0
19.90610 81.0
19.92110 65.0
19.93610 79.0
19.95110 74.0
19.96610 83.0
19.98110 77.0
19.99610 73.0
20.01110 71.0
20.02610 75.0
20.04110 71.0
20.05610 59.0
20.07110 66.0
20.08610 71.0
20.10110 76.0
20.11610 71.0
20.13110 61.0
20.14610 68.0
20.16110 61.0
20.17610 67.0
20.19110 59.0
20.20610 60.0
20.22110 71.0
20.23610 80.0
20.25110 61.0
20.26610 60.0
20.28110 73.0
20.29610 54.0
20.31110 62.0
20.32610 72.0
20.34110 57.0
20.35610 63.0
20.37110 60.0
20.38610 64.0
20.40110 72.0
20.41610 58.0
20.43110 89.0
20.44610 54.0
20.46110 50.0
20.47610 73.0
20.49110 57.0
20.50610 58.0
20.52110 68.0
20.53610 64.0
20.55110 59.0
20.56610 56.0
20.58110 61.0
20.59610 66.0
20.61110 62.0
20.62610 67.0
20.64110 79.0
20.65610 66.0
20.67110 65.0
20.68610 71.0
20.70110 58.0
20.71610 63.0
20.73110 67.0
20.74610 70.0
20.76110 65.0
20.77610 73.0
20.79110 63.0
20.80610 68.0
20.82110 68.0
20.83610 48.0
20.85110 67.0
20.86610 57.0
20.88110 55.0
20.89610 54.0
20.91110 68.0
20.92610 52.0
20.94110 54.0
20.95610 58.0
20.97110 67.0
20.98610 57.0
21.00110 56.0
21.01610 67.0
21.03110 52.0
21.04610 40.0
21.06110 69.0
21.07610 69.0
21.09110 61.0
21.10610 59.0
21.12110 56.0
21.13610 60.0
21.15110 61.0
21.16610 56.0
21.18110 54.0
21.19610 73.0
21.21110 65.0
21.22610 56.0
21.24110 62.0
21.25610 52.0
21.27110 60.0
21.28610 46.0
21.30110 60.0
21.31610 56.0
21.33110 57.0
21.34610 63.0
21.36110 56.0
21.37610 62.0
21.39110 69.0
21.40610 59.0
21.42110 71.0