Folder: DataAnalysis/data/W6777r/XRD_Omega

Note: data/W6777r/XRD_Omega/W6777r_omega_peaks.TXT
No.	Label	Pos. [記mega]	FWHM Left [記mega]	Area [cts*記mega]	Backgr.[cts]	d-spacing [魔	Height [cts]	Shape Left	Status	Integral Breadth [記mega]	FWHM Right [記mega]	Shape Right	Obs. Lorentz B [記mega]	Obs. Gauss B [記mega]	Instr. Lorentz B [記mega]	Instr. Gauss B [記mega]	Crystallite Size [魔	Micro Strain [%]	Crystallite Size only [魔	Micro Strain only [%]
1	Cr2O3 0 2 4	25,1530(5)	0,839(1)	1895,13	39,47	 	2006(4)	0,169(3)	Included	0,944568	 	 	0,182902	0,822936	0,074583	0,063182	834,942100	1,604750	101,554900	1,741742

Note: README.md
# Methods
## RSM analysis

Check out [doc](documentation/RSM.md)

File: scan_omega_4deg_step_0.005deg0_3.xy
23.18810 35.0
23.20310 55.0
23.21810 34.0
23.23310 37.0
23.24810 39.0
23.26310 36.0
23.27810 35.0
23.29310 43.0
23.30810 37.0
23.32310 38.0
23.33810 36.0
23.35310 43.0
23.36810 44.0
23.38310 34.0
23.39810 45.0
23.41310 43.0
23.42810 38.0
23.44310 62.0
23.45810 45.0
23.47310 58.0
23.48810 47.0
23.50310 64.0
23.51810 40.0
23.53310 49.0
23.54810 53.0
23.56310 53.0
23.57810 46.0
23.59310 53.0
23.60810 60.0
23.62310 63.0
23.63810 65.0
23.65310 70.0
23.66810 57.0
23.68310 73.0
23.69810 61.0
23.71310 52.0
23.72810 65.0
23.74310 67.0
23.75810 72.0
23.77310 71.0
23.78810 65.0
23.80310 73.0
23.81810 82.0
23.83310 80.0
23.84810 73.0
23.86310 89.0
23.87810 77.0
23.89310 66.0
23.90810 98.0
23.92310 92.0
23.93810 106.0
23.95310 86.0
23.96810 101.0
23.98310 80.0
23.99810 129.0
24.01310 121.0
24.02810 122.0
24.04310 104.0
24.05810 129.0
24.07310 138.0
24.08810 149.0
24.10310 143.0
24.11810 146.0
24.13310 159.0
24.14810 159.0
24.16310 189.0
24.17810 219.0
24.19310 182.0
24.20810 202.0
24.22310 200.0
24.23810 219.0
24.25310 225.0
24.26810 298.0
24.28310 248.0
24.29810 241.0
24.31310 286.0
24.32810 326.0
24.34310 333.0
24.35810 372.0
24.37310 377.0
24.38810 378.0
24.40310 420.0
24.41810 423.0
24.43310 432.0
24.44810 491.0
24.46310 515.0
24.47810 514.0
24.49310 565.0
24.50810 590.0
24.52310 627.0
24.53810 703.0
24.55310 670.0
24.56810 762.0
24.58310 732.0
24.59810 884.0
24.61310 862.0
24.62810 942.0
24.64310 969.0
24.65810 1096.0
24.67310 1075.0
24.68810 1165.0
24.70310 1222.0
24.71810 1329.0
24.73310 1373.0
24.74810 1385.0
24.76310 1510.0
24.77810 1569.0
24.79310 1637.0
24.80810 1720.0
24.82310 1849.0
24.83810 1955.0
24.85310 1997.0
24.86810 2015.0
24.88310 2119.0
24.89810 2191.0
24.91310 2238.0
24.92810 2469.0
24.94310 2428.0
24.95810 2478.0
24.97310 2576.0
24.98810 2618.0
25.00310 2706.0
25.01810 2902.0
25.03310 2968.0
25.04810 2997.0
25.06310 3100.0
25.07810 3041.0
25.09310 3113.0
25.10810 3100.0
25.12310 3006.0
25.13810 3151.0
25.15310 3216.0
25.16810 3160.0
25.18310 3162.0
25.19810 3210.0
25.21310 3229.0
25.22810 3101.0
25.24310 3118.0
25.25810 3034.0
25.27310 3047.0
25.28810 2962.0
25.30310 2820.0
25.31810 2876.0
25.33310 2739.0
25.34810 2670.0
25.36310 2615.0
25.37810 2560.0
25.39310 2494.0
25.40810 2350.0
25.42310 2314.0
25.43810 2322.0
25.45310 2200.0
25.46810 2097.0
25.48310 2035.0
25.49810 1989.0
25.51310 1825.0
25.52810 1870.0
25.54310 1699.0
25.55810 1637.0
25.57310 1580.0
25.58810 1530.0
25.60310 1406.0
25.61810 1324.0
25.63310 1265.0
25.64810 1188.0
25.66310 1181.0
25.67810 1093.0
25.69310 1026.0
25.70810 966.0
25.72310 883.0
25.73810 907.0
25.75310 817.0
25.76810 759.0
25.78310 734.0
25.79810 724.0
25.81310 689.0
25.82810 625.0
25.84310 609.0
25.85810 557.0
25.87310 548.0
25.88810 505.0
25.90310 466.0
25.91810 459.0
25.93310 474.0
25.94810 420.0
25.96310 383.0
25.97810 347.0
25.99310 368.0
26.00810 294.0
26.02310 277.0
26.03810 276.0
26.05310 286.0
26.06810 259.0
26.08310 252.0
26.09810 246.0
26.11310 227.0
26.12810 192.0
26.14310 212.0
26.15810 180.0
26.17310 182.0
26.18810 182.0
26.20310 157.0
26.21810 148.0
26.23310 146.0
26.24810 132.0
26.26310 128.0
26.27810 146.0
26.29310 133.0
26.30810 131.0
26.32310 104.0
26.33810 96.0
26.35310 109.0
26.36810 106.0
26.38310 99.0
26.39810 99.0
26.41310 105.0
26.42810 102.0
26.44310 89.0
26.45810 83.0
26.47310 99.0
26.48810 85.0
26.50310 78.0
26.51810 88.0
26.53310 78.0
26.54810 72.0
26.56310 77.0
26.57810 55.0
26.59310 49.0
26.60810 65.0
26.62310 54.0
26.63810 68.0
26.65310 71.0
26.66810 49.0
26.68310 51.0
26.69810 65.0
26.71310 52.0
26.72810 52.0
26.74310 59.0
26.75810 41.0
26.77310 56.0
26.78810 58.0
26.80310 49.0
26.81810 47.0
26.83310 55.0
26.84810 57.0
26.86310 45.0
26.87810 48.0
26.89310 32.0
26.90810 46.0
26.92310 50.0
26.93810 45.0
26.95310 38.0
26.96810 36.0
26.98310 52.0
26.99810 42.0
27.01310 38.0
27.02810 47.0
27.04310 34.0
27.05810 36.0
27.07310 42.0
27.08810 36.0
27.10310 44.0
27.11810 40.0
27.13310 42.0
27.14810 44.0