Folder: DataAnalysis/data/W6777r/XRD_2ThetaOmega

Note: data/W6777r/XRD_2ThetaOmega/W6777r_peaks.TXT
No.	Label	Pos. [°2Th.]	FWHM Left [°2Th.]	Area calc.	Assignment	h	k	l	Multiplicity	F obs.	F calc.	Area [cts*°2Th.]	Derivation	Backgr.[cts]	d-spacing [Å]	Height [cts]	K-A2 / K-A1 Ratio	Matched	Matched by	Rel. Int. [%]	Source	Status	Integral Breadth [°2Th.]
1	Cr2O3 0 1 2	24,3031(3)	0,1811(8)	0,00	 	0	1	2	 	0,000000	0,000000	629,88	Pure KA1	202,29	3,65940	2848(17)	0,500	False	 	5,82	Profile fitting	Included	0,221200
2	Al2O3 0 1 2	25,52808(4)	0,04901(9)	0,00	 	0	1	2	 	0,000000	0,000000	2553,86	Pure KA1	1099,56	3,48652	48952(113)	0,500	False	 	100,00	Profile fitting	Included	0,052171
3	Cr2O3 0 2 4	49,899(4)	0,37(3)	0,00	 	0	2	4	 	0,000000	0,000000	357,71	Pure KA1	116,01	1,82614	844(114)	0,500	False	 	1,72	Profile fitting	Included	0,423827
4	Al2O3 0 2 4	52,50598(3)	0,05906(7)	0,00	 	0	2	4	 	0,000000	0,000000	2843,66	Pure KA1	419,98	1,74144	43686(43)	0,500	False	 	89,24	Profile fitting	Included	0,065094
5	Cr2O3 0 3 6	78,58(2)	0,63(7)	0,00	 	0	3	6	 	0,000000	0,000000	22,70	Pure KA1	15,25	1,21648	33(5)	0,500	False	 	0,07	Profile fitting	Included	0,681346
6	Al2O3 0 3 6	83,1804(2)	0,0725(4)	0,00	 	0	3	6	 	0,000000	0,000000	157,74	Pure KA1	57,96	1,16044	1978(15)	0,500	False	 	4,04	Profile fitting	Included	0,079731
7	Al2O3 0 4 8	124,5920(1)	0,1061(4)	0,00	 	0	4	8	 	0,000000	0,000000	1430,00	Pure KA1	14,31	0,87004	9665(20)	0,500	False	 	19,74	Profile fitting	Included	0,147951

Note: README.md
# Methods
## RSM analysis

Check out [doc](documentation/RSM.md)

File: W6777r_absolute_2th-om_10-130deg_PIXscan_17min_4.xy
10.0035 24.0
10.4072 33.0
10.811 31.0
11.2147 29.0
11.6185 28.0
12.0222 23.0
12.426 32.0
12.8298 16.0
13.2335 24.0
13.6373 21.0
14.041 30.0
14.4448 16.0
14.8485 23.0
15.2523 23.0
15.656 24.0
16.0598 16.0
16.4636 18.0
16.8673 18.0
17.2711 18.0
17.6748 9.0
18.0786 16.0
18.4823 14.0
18.8861 17.0
19.2899 23.0
19.6936 12.0
20.0974 16.0
20.5011 15.0
20.9049 10.0
21.3086 15.0
21.7124 16.0
22.1161 17.0
22.5199 11.0
22.9237 23.0
23.3274 34.0
23.7312 43.0
24.1349 453.0
24.5387 827.0
24.9424 108.0
25.3462 271.0
25.75 312.0
26.1537 65.0
26.5575 24.0
26.9612 25.0
27.365 10.0
27.7687 13.0
28.1725 15.0
28.5762 16.0
28.98 16.0
29.3838 12.0
29.7875 14.0
30.1913 12.0
30.595 10.0
30.9988 12.0
31.4025 14.0
31.8063 16.0
32.2101 18.0
32.6138 9.0
33.0176 10.0
33.4213 16.0
33.8251 14.0
34.2288 16.0
34.6326 10.0
35.0363 18.0
35.4401 7.0
35.8439 9.0
36.2476 16.0
36.6514 14.0
37.0551 7.0
37.4589 5.0
37.8626 11.0
38.2664 13.0
38.6702 18.0
39.0739 9.0
39.4777 9.0
39.8814 19.0
40.2852 20.0
40.6889 11.0
41.0927 14.0
41.4964 8.0
41.9002 11.0
42.304 15.0
42.7077 9.0
43.1115 11.0
43.5152 8.0
43.919 18.0
44.3227 11.0
44.7265 25.0
45.1303 9.0
45.534 7.0
45.9378 9.0
46.3415 13.0
46.7453 13.0
47.149 82.0
47.5528 14.0
47.9565 13.0
48.3603 19.0
48.7641 26.0
49.1678 22.0
49.5716 165.0
49.9753 1265.0
50.3791 127.0
50.7828 47.0
51.1866 36.0
51.5903 59.0
51.9941 101.0
52.3979 962.0
52.8016 481.0
53.2054 111.0
53.6091 49.0
54.0129 24.0
54.4166 18.0
54.8204 16.0
55.2242 14.0
55.6279 16.0
56.0317 18.0
56.4354 21.0
56.8392 22.0
57.2429 13.0
57.6467 17.0
58.0504 11.0
58.4542 11.0
58.858 11.0
59.2617 12.0
59.6655 24.0
60.0692 8.0
60.473 9.0
60.8767 13.0
61.2805 17.0
61.6843 7.0
62.088 11.0
62.4918 15.0
62.8955 11.0
63.2993 12.0
63.703 11.0
64.1068 10.0
64.5105 13.0
64.9143 13.0
65.3181 16.0
65.7218 9.0
66.1256 12.0
66.5293 14.0
66.9331 11.0
67.3368 12.0
67.7406 14.0
68.1444 7.0
68.5481 20.0
68.9519 11.0
69.3556 7.0
69.7594 12.0
70.1631 14.0
70.5669 17.0
70.9706 19.0
71.3744 15.0
71.7782 13.0
72.1819 13.0
72.5857 14.0
72.9894 12.0
73.3932 11.0
73.7969 17.0
74.2007 4.0
74.6045 12.0
75.0082 8.0
75.412 15.0
75.8157 15.0
76.2195 15.0
76.6232 14.0
77.027 19.0
77.4307 17.0
77.8345 26.0
78.2383 29.0
78.642 63.0
79.0458 35.0
79.4495 22.0
79.8533 10.0
80.257 14.0
80.6608 11.0
81.0646 12.0
81.4683 13.0
81.8721 17.0
82.2758 20.0
82.6796 19.0
83.0833 121.0
83.4871 323.0
83.8908 20.0
84.2946 19.0
84.6984 11.0
85.1021 9.0
85.5059 9.0
85.9096 7.0
86.3134 13.0
86.7171 6.0
87.1209 13.0
87.5247 10.0
87.9284 15.0
88.3322 14.0
88.7359 9.0
89.1397 14.0
89.5434 10.0
89.9472 12.0
90.3509 10.0
90.7547 12.0
91.1585 11.0
91.5622 10.0
91.966 12.0
92.3697 7.0
92.7735 14.0
93.1772 17.0
93.581 11.0
93.9848 13.0
94.3885 14.0
94.7923 16.0
95.196 12.0
95.5998 16.0
96.0035 7.0
96.4073 8.0
96.811 14.0
97.2148 9.0
97.6186 18.0
98.0223 14.0
98.4261 20.0
98.8298 10.0
99.2336 8.0
99.6373 11.0
100.041 10.0
100.445 12.0
100.849 12.0
101.252 7.0
101.656 13.0
102.06 11.0
102.464 12.0
102.867 13.0
103.271 18.0
103.675 14.0
104.079 14.0
104.482 16.0
104.886 9.0
105.29 18.0
105.694 5.0
106.097 12.0
106.501 15.0
106.905 15.0
107.309 9.0
107.712 10.0
108.116 10.0
108.52 13.0
108.924 11.0
109.327 9.0
109.731 15.0
110.135 18.0
110.539 10.0
110.943 24.0
111.346 19.0
111.75 10.0
112.154 14.0
112.558 14.0
112.961 4.0
113.365 8.0
113.769 9.0
114.173 11.0
114.576 10.0
114.98 9.0
115.384 25.0
115.788 24.0
116.191 33.0
116.595 17.0
116.999 12.0
117.403 19.0
117.806 10.0
118.21 9.0
118.614 15.0
119.018 11.0
119.421 10.0
119.825 10.0
120.229 17.0
120.633 13.0
121.036 14.0
121.44 17.0
121.844 19.0
122.248 21.0
122.651 16.0
123.055 25.0
123.459 33.0
123.863 71.0
124.266 166.0
124.67 2762.0
125.074 2103.0
125.478 107.0
125.881 52.0
126.285 45.0
126.689 29.0
127.093 20.0
127.497 24.0
127.9 29.0
128.304 21.0
128.708 14.0
129.112 18.0
129.515 15.0
129.919 19.0
129.998 19.0