Folder: DataAnalysis/data/W6784c/XRD_2ThetaOmega

Note: data/W6784c/XRD_2ThetaOmega/W6784c_peaks.TXT
No.	Label	Pos. [°2Th.]	FWHM Left [°2Th.]	Area calc.	Assignment	h	k	l	Multiplicity	F obs.	F calc.	Area [cts*°2Th.]	Derivation	Backgr.[cts]	d-spacing [Å]	Height [cts]	K-A2 / K-A1 Ratio	Matched	Matched by	Rel. Int. [%]	Source	Status	Integral Breadth [°2Th.]
1	Cr2O3 0 0 6	38,915(1)	0,446(5)	0,00	 	 	 	 	 	0,000000	0,000000	136,21	Pure KA1	6,51	2,31248	228(2)	0,500	False	 	2,87	Profile fitting	Included	0,597473
2	Al2O3 0 0 6	41,61238(8)	0,0515(2)	0,00	 	 	 	 	 	0,000000	0,000000	425,81	Pure KA1	12,93	2,16859	7032(28)	0,500	False	 	88,51	Profile fitting	Included	0,060555
3	Cr2O3 0 0 12	83,650(7)	1,05(2)	0,00	 	 	 	 	 	0,000000	0,000000	33,58	Pure KA1	15,83	1,15512	30(1)	0,500	False	 	0,38	Profile fitting	Included	1,117746
4	Al2O3 0 0 12	90,67636(9)	0,0705(3)	0,00	 	 	 	 	 	0,000000	0,000000	740,62	Pure KA1	14,52	1,08299	7945(28)	0,500	False	 	100,00	Profile fitting	Included	0,093218

Note: README.md
# Methods
## RSM analysis

Check out [doc](documentation/RSM.md)

File: W6784c_absolute_2th-om_10-130deg_PIXscan_17min_1.xy
10.0035 22.0
10.4072 18.0
10.811 21.0
11.2147 16.0
11.6185 24.0
12.0222 19.0
12.426 26.0
12.8298 18.0
13.2335 20.0
13.6373 16.0
14.041 15.0
14.4448 9.0
14.8485 15.0
15.2523 19.0
15.656 14.0
16.0598 22.0
16.4636 21.0
16.8673 10.0
17.2711 15.0
17.6748 10.0
18.0786 8.0
18.4823 7.0
18.8861 7.0
19.2899 16.0
19.6936 14.0
20.0974 14.0
20.5011 16.0
20.9049 6.0
21.3086 16.0
21.7124 12.0
22.1161 10.0
22.5199 11.0
22.9237 10.0
23.3274 15.0
23.7312 16.0
24.1349 8.0
24.5387 14.0
24.9424 12.0
25.3462 13.0
25.75 10.0
26.1537 8.0
26.5575 13.0
26.9612 11.0
27.365 11.0
27.7687 6.0
28.1725 8.0
28.5762 14.0
28.98 5.0
29.3838 7.0
29.7875 5.0
30.1913 8.0
30.595 11.0
30.9988 8.0
31.4025 11.0
31.8063 9.0
32.2101 8.0
32.6138 6.0
33.0176 7.0
33.4213 9.0
33.8251 13.0
34.2288 18.0
34.6326 9.0
35.0363 5.0
35.4401 8.0
35.8439 6.0
36.2476 11.0
36.6514 6.0
37.0551 9.0
37.4589 13.0
37.8626 7.0
38.2664 21.0
38.6702 129.0
39.0739 238.0
39.4777 47.0
39.8814 25.0
40.2852 7.0
40.6889 7.0
41.0927 15.0
41.4964 98.0
41.9002 51.0
42.304 19.0
42.7077 14.0
43.1115 10.0
43.5152 12.0
43.919 11.0
44.3227 20.0
44.7265 14.0
45.1303 11.0
45.534 9.0
45.9378 6.0
46.3415 5.0
46.7453 5.0
47.149 12.0
47.5528 6.0
47.9565 5.0
48.3603 5.0
48.7641 5.0
49.1678 7.0
49.5716 12.0
49.9753 13.0
50.3791 11.0
50.7828 11.0
51.1866 7.0
51.5903 16.0
51.9941 10.0
52.3979 6.0
52.8016 7.0
53.2054 7.0
53.6091 11.0
54.0129 7.0
54.4166 3.0
54.8204 7.0
55.2242 7.0
55.6279 10.0
56.0317 9.0
56.4354 8.0
56.8392 11.0
57.2429 8.0
57.6467 8.0
58.0504 10.0
58.4542 13.0
58.858 9.0
59.2617 11.0
59.6655 11.0
60.0692 12.0
60.473 6.0
60.8767 10.0
61.2805 15.0
61.6843 8.0
62.088 10.0
62.4918 15.0
62.8955 14.0
63.2993 8.0
63.703 17.0
64.1068 9.0
64.5105 15.0
64.9143 2.0
65.3181 6.0
65.7218 9.0
66.1256 20.0
66.5293 6.0
66.9331 9.0
67.3368 1.0
67.7406 15.0
68.1444 11.0
68.5481 17.0
68.9519 11.0
69.3556 7.0
69.7594 10.0
70.1631 7.0
70.5669 5.0
70.9706 10.0
71.3744 15.0
71.7782 11.0
72.1819 19.0
72.5857 16.0
72.9894 6.0
73.3932 12.0
73.7969 8.0
74.2007 8.0
74.6045 8.0
75.0082 14.0
75.412 12.0
75.8157 8.0
76.2195 9.0
76.6232 13.0
77.027 8.0
77.4307 5.0
77.8345 9.0
78.2383 16.0
78.642 11.0
79.0458 14.0
79.4495 14.0
79.8533 16.0
80.257 9.0
80.6608 15.0
81.0646 12.0
81.4683 11.0
81.8721 11.0
82.2758 11.0
82.6796 21.0
83.0833 39.0
83.4871 58.0
83.8908 63.0
84.2946 36.0
84.6984 29.0
85.1021 18.0
85.5059 9.0
85.9096 37.0
86.3134 14.0
86.7171 11.0
87.1209 9.0
87.5247 12.0
87.9284 13.0
88.3322 13.0
88.7359 12.0
89.1397 19.0
89.5434 17.0
89.9472 23.0
90.3509 70.0
90.7547 916.0
91.1585 111.0
91.5622 36.0
91.966 38.0
92.3697 22.0
92.7735 23.0
93.1772 35.0
93.581 25.0
93.9848 16.0
94.3885 18.0
94.7923 20.0
95.196 10.0
95.5998 9.0
96.0035 12.0
96.4073 15.0
96.811 14.0
97.2148 11.0
97.6186 11.0
98.0223 4.0
98.4261 12.0
98.8298 12.0
99.2336 11.0
99.6373 11.0
100.041 8.0
100.445 9.0
100.849 11.0
101.252 16.0
101.656 17.0
102.06 17.0
102.464 11.0
102.867 14.0
103.271 13.0
103.675 7.0
104.079 8.0
104.482 11.0
104.886 13.0
105.29 20.0
105.694 13.0
106.097 15.0
106.501 12.0
106.905 16.0
107.309 7.0
107.712 16.0
108.116 6.0
108.52 9.0
108.924 18.0
109.327 17.0
109.731 6.0
110.135 16.0
110.539 9.0
110.943 8.0
111.346 20.0
111.75 9.0
112.154 13.0
112.558 12.0
112.961 17.0
113.365 17.0
113.769 8.0
114.173 9.0
114.576 12.0
114.98 7.0
115.384 13.0
115.788 13.0
116.191 13.0
116.595 16.0
116.999 18.0
117.403 14.0
117.806 7.0
118.21 11.0
118.614 18.0
119.018 15.0
119.421 15.0
119.825 12.0
120.229 19.0
120.633 12.0
121.036 13.0
121.44 10.0
121.844 10.0
122.248 12.0
122.651 14.0
123.055 9.0
123.459 13.0
123.863 22.0
124.266 15.0
124.67 17.0
125.074 13.0
125.478 13.0
125.881 15.0
126.285 13.0
126.689 13.0
127.093 13.0
127.497 12.0
127.9 16.0
128.304 16.0
128.708 18.0
129.112 21.0
129.515 12.0
129.919 14.0
129.998 10.0