Folder: DataAnalysis/data/W6784c/XRD_Omega

Note: data/W6784c/XRD_Omega/W6784c_omega_peaks.TXT
No.	Label	Pos. [記mega]	FWHM Left [記mega]	Area [cts*記mega]	Backgr.[cts]	d-spacing [魔	Height [cts]	Shape Left	Status	Integral Breadth [記mega]	FWHM Right [記mega]	Shape Right	Obs. Lorentz B [記mega]	Obs. Gauss B [記mega]	Instr. Lorentz B [記mega]	Instr. Gauss B [記mega]	Crystallite Size [魔	Micro Strain [%]	Crystallite Size only [魔	Micro Strain only [%]
1	Cr2O3 0 0 6	19,4832(6)	0,610(3)	2032,28	1125,72	 	2680(16)	0,45(2)	Included	0,758440	 	 	0,368229	0,500800	0,075235	0,063733	305,675800	1,262454	127,998700	1,778326

Note: README.md
# Methods
## RSM analysis

Check out [doc](documentation/RSM.md)

File: W6784c_Cr2O3_scan_omega_2deg_step_0.002deg0_13.xy
18.50370 1007.0
18.51170 979.0
18.51970 995.0
18.52770 1006.0
18.53570 1025.0
18.54370 1052.0
18.55170 1066.0
18.55970 986.0
18.56770 1101.0
18.57570 1057.0
18.58370 1053.0
18.59170 1075.0
18.59970 1068.0
18.60770 1116.0
18.61570 1116.0
18.62370 1160.0
18.63170 1157.0
18.63970 1147.0
18.64770 1185.0
18.65570 1171.0
18.66370 1176.0
18.67170 1191.0
18.67970 1250.0
18.68770 1214.0
18.69570 1202.0
18.70370 1250.0
18.71170 1202.0
18.71970 1297.0
18.72770 1226.0
18.73570 1258.0
18.74370 1322.0
18.75170 1299.0
18.75970 1277.0
18.76770 1342.0
18.77570 1358.0
18.78370 1419.0
18.79170 1372.0
18.79970 1439.0
18.80770 1456.0
18.81570 1451.0
18.82370 1503.0
18.83170 1470.0
18.83970 1505.0
18.84770 1541.0
18.85570 1539.0
18.86370 1597.0
18.87170 1652.0
18.87970 1648.0
18.88770 1678.0
18.89570 1712.0
18.90370 1730.0
18.91170 1682.0
18.91970 1722.0
18.92770 1838.0
18.93570 1851.0
18.94370 1848.0
18.95170 1905.0
18.95970 1878.0
18.96770 1896.0
18.97570 2041.0
18.98370 2085.0
18.99170 2047.0
18.99970 1981.0
19.00770 2127.0
19.01570 2204.0
19.02370 2104.0
19.03170 2223.0
19.03970 2314.0
19.04770 2365.0
19.05570 2342.0
19.06370 2392.0
19.07170 2484.0
19.07970 2548.0
19.08770 2547.0
19.09570 2710.0
19.10370 2717.0
19.11170 2802.0
19.11970 2844.0
19.12770 2788.0
19.13570 2982.0
19.14370 3015.0
19.15170 3049.0
19.15970 3195.0
19.16770 3245.0
19.17570 3080.0
19.18370 3279.0
19.19170 3374.0
19.19970 3468.0
19.20770 3522.0
19.21570 3600.0
19.22370 3729.0
19.23170 3611.0
19.23970 3758.0
19.24770 3817.0
19.25570 3742.0
19.26370 3938.0
19.27170 4083.0
19.27970 4127.0
19.28770 4205.0
19.29570 4283.0
19.30370 4455.0
19.31170 4628.0
19.31970 4518.0
19.32770 4573.0
19.33570 4850.0
19.34370 4646.0
19.35170 4684.0
19.35970 4787.0
19.36770 4971.0
19.37570 5123.0
19.38370 4970.0
19.39170 4975.0
19.39970 5238.0
19.40770 5302.0
19.41570 5205.0
19.42370 5351.0
19.43170 5458.0
19.43970 5274.0
19.44770 5411.0
19.45570 5488.0
19.46370 5453.0
19.47170 5323.0
19.47970 5515.0
19.48770 5411.0
19.49570 5454.0
19.50370 5378.0
19.51170 5394.0
19.51970 5416.0
19.52770 5575.0
19.53570 5501.0
19.54370 5360.0
19.55170 5443.0
19.55970 5366.0
19.56770 5294.0
19.57570 5369.0
19.58370 5273.0
19.59170 5126.0
19.59970 5057.0
19.60770 5068.0
19.61570 5019.0
19.62370 4988.0
19.63170 4914.0
19.63970 4892.0
19.64770 4864.0
19.65570 4754.0
19.66370 4843.0
19.67170 4714.0
19.67970 4581.0
19.68770 4596.0
19.69570 4418.0
19.70370 4351.0
19.71170 4273.0
19.71970 4074.0
19.72770 4043.0
19.73570 4010.0
19.74370 4100.0
19.75170 3975.0
19.75970 3827.0
19.76770 3772.0
19.77570 3685.0
19.78370 3527.0
19.79170 3485.0
19.79970 3351.0
19.80770 3414.0
19.81570 3235.0
19.82370 3288.0
19.83170 3093.0
19.83970 3125.0
19.84770 2981.0
19.85570 2946.0
19.86370 2994.0
19.87170 2839.0
19.87970 2916.0
19.88770 2688.0
19.89570 2796.0
19.90370 2716.0
19.91170 2598.0
19.91970 2546.0
19.92770 2558.0
19.93570 2474.0
19.94370 2499.0
19.95170 2290.0
19.95970 2303.0
19.96770 2295.0
19.97570 2192.0
19.98370 2185.0
19.99170 2154.0
19.99970 2181.0
20.00770 2119.0
20.01570 2038.0
20.02370 1988.0
20.03170 1988.0
20.03970 1995.0
20.04770 1876.0
20.05570 1966.0
20.06370 1829.0
20.07170 1957.0
20.07970 1897.0
20.08770 1763.0
20.09570 1767.0
20.10370 1757.0
20.11170 1749.0
20.11970 1729.0
20.12770 1692.0
20.13570 1712.0
20.14370 1650.0
20.15170 1632.0
20.15970 1476.0
20.16770 1581.0
20.17570 1482.0
20.18370 1435.0
20.19170 1438.0
20.19970 1398.0
20.20770 1354.0
20.21570 1444.0
20.22370 1459.0
20.23170 1437.0
20.23970 1406.0
20.24770 1375.0
20.25570 1356.0
20.26370 1366.0
20.27170 1300.0
20.27970 1238.0
20.28770 1333.0
20.29570 1266.0
20.30370 1271.0
20.31170 1221.0
20.31970 1208.0
20.32770 1237.0
20.33570 1137.0
20.34370 1161.0
20.35170 1170.0
20.35970 1114.0
20.36770 1117.0
20.37570 1095.0
20.38370 1184.0
20.39170 1082.0
20.39970 1084.0
20.40770 1155.0
20.41570 1145.0
20.42370 1083.0
20.43170 1020.0
20.43970 1032.0
20.44770 1055.0
20.45570 1079.0
20.46370 1042.0
20.47170 1045.0
20.47970 999.0
20.48770 1049.0