Folder: DataAnalysis/data/W6902r/XRD_Omega

Note: data/W6902r/XRD_Omega/W6902r_omega_peaks.TXT
No.	Label	Pos. [記mega]	FWHM Left [記mega]	Area [cts*記mega]	Backgr.[cts]	d-spacing [魔	Height [cts]	Shape Left	Status	Integral Breadth [記mega]	FWHM Right [記mega]	Shape Right	Obs. Lorentz B [記mega]	Obs. Gauss B [記mega]	Instr. Lorentz B [記mega]	Instr. Gauss B [記mega]	Crystallite Size [魔	Micro Strain [%]	Crystallite Size only [魔	Micro Strain only [%]
1	Cr2O3 0 2 4	24,4667(7)	0,899(2)	1382,46	83,07	 	1327(3)	0,251(4)	Included	1,041481	 	 	0,294289	0,842277	0,074651	0,063239	411,225500	1,690255	91,698930	1,982202

Note: README.md
# Methods
## RSM analysis

Check out [doc](documentation/RSM.md)

File: scan_omega_4deg_step_0.005deg0_C3.xy
22.51100 89.0
22.52600 73.0
22.54100 92.0
22.55600 62.0
22.57100 75.0
22.58600 65.0
22.60100 78.0
22.61600 84.0
22.63100 70.0
22.64600 88.0
22.66100 75.0
22.67600 68.0
22.69100 86.0
22.70600 76.0
22.72100 83.0
22.73600 94.0
22.75100 84.0
22.76600 87.0
22.78100 87.0
22.79600 79.0
22.81100 89.0
22.82600 98.0
22.84100 99.0
22.85600 92.0
22.87100 84.0
22.88600 110.0
22.90100 118.0
22.91600 103.0
22.93100 120.0
22.94600 110.0
22.96100 110.0
22.97600 95.0
22.99100 102.0
23.00600 97.0
23.02100 119.0
23.03600 84.0
23.05100 107.0
23.06600 110.0
23.08100 95.0
23.09600 132.0
23.11100 104.0
23.12600 113.0
23.14100 131.0
23.15600 127.0
23.17100 121.0
23.18600 146.0
23.20100 145.0
23.21600 143.0
23.23100 158.0
23.24600 129.0
23.26100 160.0
23.27600 152.0
23.29100 187.0
23.30600 157.0
23.32100 163.0
23.33600 190.0
23.35100 164.0
23.36600 193.0
23.38100 185.0
23.39600 181.0
23.41100 173.0
23.42600 215.0
23.44100 255.0
23.45600 250.0
23.47100 233.0
23.48600 240.0
23.50100 251.0
23.51600 263.0
23.53100 248.0
23.54600 259.0
23.56100 270.0
23.57600 260.0
23.59100 340.0
23.60600 324.0
23.62100 371.0
23.63600 324.0
23.65100 366.0
23.66600 312.0
23.68100 368.0
23.69600 396.0
23.71100 414.0
23.72600 424.0
23.74100 429.0
23.75600 427.0
23.77100 414.0
23.78600 491.0
23.80100 545.0
23.81600 545.0
23.83100 537.0
23.84600 593.0
23.86100 646.0
23.87600 655.0
23.89100 673.0
23.90600 686.0
23.92100 728.0
23.93600 695.0
23.95100 749.0
23.96600 845.0
23.98100 866.0
23.99600 912.0
24.01100 916.0
24.02600 965.0
24.04100 1048.0
24.05600 1143.0
24.07100 1130.0
24.08600 1119.0
24.10100 1165.0
24.11600 1240.0
24.13100 1271.0
24.14600 1326.0
24.16100 1426.0
24.17600 1438.0
24.19100 1500.0
24.20600 1498.0
24.22100 1537.0
24.23600 1674.0
24.25100 1675.0
24.26600 1737.0
24.28100 1766.0
24.29600 1835.0
24.31100 1864.0
24.32600 1848.0
24.34100 1934.0
24.35600 1999.0
24.37100 2025.0
24.38600 2089.0
24.40100 2166.0
24.41600 2154.0
24.43100 2140.0
24.44600 2183.0
24.46100 2190.0
24.47600 2148.0
24.49100 2260.0
24.50600 2167.0
24.52100 2192.0
24.53600 2153.0
24.55100 2305.0
24.56600 2153.0
24.58100 2253.0
24.59600 2031.0
24.61100 2084.0
24.62600 2029.0
24.64100 1935.0
24.65600 1921.0
24.67100 1760.0
24.68600 1765.0
24.70100 1647.0
24.71600 1673.0
24.73100 1704.0
24.74600 1620.0
24.76100 1558.0
24.77600 1490.0
24.79100 1407.0
24.80600 1368.0
24.82100 1304.0
24.83600 1303.0
24.85100 1224.0
24.86600 1251.0
24.88100 1181.0
24.89600 1057.0
24.91100 1126.0
24.92600 1075.0
24.94100 1019.0
24.95600 973.0
24.97100 904.0
24.98600 841.0
25.00100 858.0
25.01600 838.0
25.03100 812.0
25.04600 767.0
25.06100 741.0
25.07600 660.0
25.09100 649.0
25.10600 578.0
25.12100 616.0
25.13600 585.0
25.15100 570.0
25.16600 546.0
25.18100 471.0
25.19600 488.0
25.21100 466.0
25.22600 476.0
25.24100 420.0
25.25600 433.0
25.27100 382.0
25.28600 395.0
25.30100 360.0
25.31600 400.0
25.33100 334.0
25.34600 322.0
25.36100 318.0
25.37600 327.0
25.39100 302.0
25.40600 308.0
25.42100 263.0
25.43600 270.0
25.45100 232.0
25.46600 273.0
25.48100 265.0
25.49600 232.0
25.51100 202.0
25.52600 200.0
25.54100 197.0
25.55600 189.0
25.57100 194.0
25.58600 160.0
25.60100 188.0
25.61600 153.0
25.63100 177.0
25.64600 165.0
25.66100 176.0
25.67600 138.0
25.69100 156.0
25.70600 163.0
25.72100 163.0
25.73600 144.0
25.75100 147.0
25.76600 140.0
25.78100 105.0
25.79600 137.0
25.81100 111.0
25.82600 116.0
25.84100 125.0
25.85600 121.0
25.87100 114.0
25.88600 132.0
25.90100 100.0
25.91600 99.0
25.93100 136.0
25.94600 125.0
25.96100 101.0
25.97600 124.0
25.99100 103.0
26.00600 115.0
26.02100 109.0
26.03600 98.0
26.05100 94.0
26.06600 86.0
26.08100 109.0
26.09600 92.0
26.11100 104.0
26.12600 96.0
26.14100 99.0
26.15600 84.0
26.17100 75.0
26.18600 79.0
26.20100 88.0
26.21600 101.0
26.23100 84.0
26.24600 78.0
26.26100 80.0
26.27600 69.0
26.29100 81.0
26.30600 76.0
26.32100 72.0
26.33600 68.0
26.35100 75.0
26.36600 69.0
26.38100 73.0
26.39600 71.0
26.41100 71.0
26.42600 73.0
26.44100 61.0
26.45600 87.0
26.47100 77.0