Folder: DataAnalysis/data/W6902r/XRD_2ThetaOmega

Note: data/W6902r/XRD_2ThetaOmega/W6902r_peaks.TXT
No.	Label	Pos. [°2Th.]	FWHM Left [°2Th.]	Area [cts*°2Th.]	Backgr.[cts]	d-spacing [Å]	Height [cts]	Shape Left	Status	Integral Breadth [°2Th.]	FWHM Right [°2Th.]	Shape Right	Obs. Lorentz B [°2Th.]	Obs. Gauss B [°2Th.]	Instr. Lorentz B [°2Th.]	Instr. Gauss B [°2Th.]	Crystallite Size [Å]	Micro Strain [%]	Crystallite Size only [Å]	Micro Strain only [%]
1	Cr2O3 0 2 4	50,0055(5)	0,363(1)	684,04	193,26	1,82249	1770(7)	0,00(1)	Included	0,386509	 	 	0,000945	0,386509	0,074543	0,063151	-1323,379000	0,356758	255,395400	0,356798
2	Al2O3 0 2 4	52,50554(1)	0,05646(2)	35157,87	212,33	1,74145	511495(233)	0,3900(6)	Included	0,068736	 	 	0,029443	0,048335	0,074847	0,063409	-2167,688000	-0,036309	31120,230000	0,002798

Note: README.md
# Methods
## RSM analysis

Check out [doc](documentation/RSM.md)

File: scan_2th-om_r2_Cr2O3_45-55deg_PIXscan_5min_C3.xy
45.0025 117.0
45.0369 121.0
45.0714 135.0
45.1059 112.0
45.1403 115.0
45.1748 86.0
45.2093 91.0
45.2437 96.0
45.2782 93.0
45.3127 100.0
45.3471 97.0
45.3816 115.0
45.4161 84.0
45.4505 90.0
45.485 109.0
45.5195 118.0
45.5539 112.0
45.5884 100.0
45.6229 113.0
45.6573 94.0
45.6918 113.0
45.7263 108.0
45.7607 93.0
45.7952 93.0
45.8297 82.0
45.8641 100.0
45.8986 104.0
45.9331 102.0
45.9675 101.0
46.002 105.0
46.0365 111.0
46.0709 96.0
46.1054 75.0
46.1399 97.0
46.1743 106.0
46.2088 106.0
46.2433 119.0
46.2777 100.0
46.3122 95.0
46.3467 94.0
46.3811 107.0
46.4156 110.0
46.4501 107.0
46.4845 111.0
46.519 111.0
46.5535 123.0
46.5879 83.0
46.6224 120.0
46.6569 114.0
46.6913 111.0
46.7258 100.0
46.7603 114.0
46.7947 114.0
46.8292 111.0
46.8637 134.0
46.8981 115.0
46.9326 136.0
46.9671 127.0
47.0015 139.0
47.036 221.0
47.0705 728.0
47.1049 1662.0
47.1394 1415.0
47.1739 479.0
47.2083 263.0
47.2428 162.0
47.2773 140.0
47.3118 163.0
47.3462 135.0
47.3807 144.0
47.4152 121.0
47.4496 129.0
47.4841 135.0
47.5186 105.0
47.553 129.0
47.5875 120.0
47.622 130.0
47.6564 135.0
47.6909 113.0
47.7254 118.0
47.7598 140.0
47.7943 129.0
47.8288 143.0
47.8632 122.0
47.8977 112.0
47.9322 107.0
47.9666 121.0
48.0011 133.0
48.0356 124.0
48.07 123.0
48.1045 125.0
48.139 124.0
48.1734 128.0
48.2079 129.0
48.2424 118.0
48.2768 123.0
48.3113 122.0
48.3458 130.0
48.3802 139.0
48.4147 127.0
48.4492 126.0
48.4836 134.0
48.5181 133.0
48.5526 128.0
48.587 95.0
48.6215 137.0
48.656 147.0
48.6904 159.0
48.7249 134.0
48.7594 141.0
48.7938 145.0
48.8283 120.0
48.8628 145.0
48.8972 135.0
48.9317 146.0
48.9662 157.0
49.0006 160.0
49.0351 175.0
49.0696 160.0
49.104 161.0
49.1385 156.0
49.173 180.0
49.2074 158.0
49.2419 182.0
49.2764 184.0
49.3108 207.0
49.3453 217.0
49.3798 233.0
49.4142 236.0
49.4487 259.0
49.4832 290.0
49.5176 314.0
49.5521 330.0
49.5866 394.0
49.621 475.0
49.6555 491.0
49.69 571.0
49.7244 638.0
49.7589 763.0
49.7934 954.0
49.8278 1126.0
49.8623 1426.0
49.8968 1820.0
49.9312 2223.0
49.9657 2616.0
50.0002 2819.0
50.0346 2937.0
50.0691 2960.0
50.1036 2713.0
50.138 2414.0
50.1725 2067.0
50.207 1799.0
50.2414 1424.0
50.2759 1174.0
50.3104 953.0
50.3448 797.0
50.3793 722.0
50.4138 604.0
50.4482 458.0
50.4827 443.0
50.5172 402.0
50.5516 380.0
50.5861 350.0
50.6206 304.0
50.655 306.0
50.6895 297.0
50.724 333.0
50.7584 301.0
50.7929 227.0
50.8274 279.0
50.8619 313.0
50.8963 278.0
50.9308 295.0
50.9653 310.0
50.9997 301.0
51.0342 352.0
51.0687 312.0
51.1031 382.0
51.1376 353.0
51.1721 378.0
51.2065 399.0
51.241 405.0
51.2755 388.0
51.3099 409.0
51.3444 443.0
51.3789 480.0
51.4133 451.0
51.4478 494.0
51.4823 466.0
51.5167 517.0
51.5512 572.0
51.5857 587.0
51.6201 577.0
51.6546 658.0
51.6891 682.0
51.7235 652.0
51.758 677.0
51.7925 716.0
51.8269 710.0
51.8614 792.0
51.8959 833.0
51.9303 911.0
51.9648 1011.0
51.9993 1029.0
52.0337 1161.0
52.0682 1279.0
52.1027 1473.0
52.1371 1705.0
52.1716 2106.0
52.2061 3121.0
52.2405 4764.0
52.275 5610.0
52.3095 5585.0
52.3439 5834.0
52.3784 8334.0
52.4129 14967.0
52.4473 43935.0
52.4818 360451.0
52.5163 462512.0
52.5507 96528.0
52.5852 38306.0
52.6197 163826.0
52.6541 231898.0
52.6886 62014.0
52.7231 14378.0
52.7575 7281.0
52.792 4884.0
52.8265 3606.0
52.8609 2738.0
52.8954 2184.0
52.9299 1824.0
52.9643 1547.0
52.9988 1406.0
53.0333 1195.0
53.0677 1088.0
53.1022 982.0
53.1367 946.0
53.1711 786.0
53.2056 778.0
53.2401 634.0
53.2745 648.0
53.309 604.0
53.3435 554.0
53.3779 497.0
53.4124 491.0
53.4469 432.0
53.4813 420.0
53.5158 430.0
53.5503 380.0
53.5847 361.0
53.6192 330.0
53.6537 337.0
53.6881 324.0
53.7226 293.0
53.7571 274.0
53.7915 275.0
53.826 262.0
53.8605 228.0
53.8949 199.0
53.9294 216.0
53.9639 182.0
53.9983 208.0
54.0328 178.0
54.0673 193.0
54.1017 179.0
54.1362 175.0
54.1707 168.0
54.2051 187.0
54.2396 162.0
54.2741 166.0
54.3085 159.0
54.343 160.0
54.3775 155.0
54.412 123.0
54.4464 152.0
54.4809 160.0
54.5154 161.0
54.5498 170.0
54.5843 131.0
54.6188 135.0
54.6532 138.0
54.6877 151.0
54.7222 147.0
54.7566 134.0
54.7911 152.0
54.8256 149.0
54.86 144.0
54.8945 124.0
54.929 132.0
54.9634 139.0
54.9979 134.0