Folder: DataAnalysis/data/w6930m/XRD_2ThetaOmega

Note: data/w6930m/XRD_2ThetaOmega/W6930m_peaks.TXT
No.	Label	Pos. [°2Th.]	FWHM Left [°2Th.]	Area [cts*°2Th.]	Backgr.[cts]	d-spacing [Å]	Height [cts]	Shape Left	Status	Integral Breadth [°2Th.]	FWHM Right [°2Th.]	Shape Right	Obs. Lorentz B [°2Th.]	Obs. Gauss B [°2Th.]	Instr. Lorentz B [°2Th.]	Instr. Gauss B [°2Th.]	Crystallite Size [Å]	Micro Strain [%]	Crystallite Size only [Å]	Micro Strain only [%]
1	Cr2O3 3 0 0	64,962(6)	0,16(2)	8,71	69,55	1,43440	36(3)	1,0(3)	Included	0,244475	 	 	0,243328	0,004129	0,077460	0,065623	630,853300	-0,044889	630,624200	0,113728
2	Al2O3 3 0 0	68,16350(1)	0,04420(6)	13589,37	121,91	1,37461	224203(211)	0,694(2)	Included	0,060612	 	 	0,044005	0,027957	0,078471	0,066479	-3092,177000	-0,038897	33698,280000	0,002040

Note: README.md
# Methods
## RSM analysis

Check out [doc](documentation/RSM.md)

File: 30m_scan_2th-om_m_Cr2O3_55-75deg_PIXscan_4min_3.xy
55.0019 61.0
55.0609 36.0
55.12 68.0
55.1791 68.0
55.2382 52.0
55.2973 60.0
55.3564 54.0
55.4155 48.0
55.4746 54.0
55.5336 51.0
55.5927 59.0
55.6518 57.0
55.7109 48.0
55.77 57.0
55.8291 60.0
55.8882 50.0
55.9472 61.0
56.0063 52.0
56.0654 57.0
56.1245 79.0
56.1836 48.0
56.2427 57.0
56.3018 60.0
56.3608 47.0
56.4199 50.0
56.479 50.0
56.5381 50.0
56.5972 49.0
56.6563 45.0
56.7154 48.0
56.7745 59.0
56.8335 48.0
56.8926 59.0
56.9517 58.0
57.0108 73.0
57.0699 61.0
57.129 57.0
57.1881 56.0
57.2471 42.0
57.3062 43.0
57.3653 62.0
57.4244 53.0
57.4835 62.0
57.5426 63.0
57.6017 47.0
57.6607 53.0
57.7198 69.0
57.7789 50.0
57.838 70.0
57.8971 65.0
57.9562 43.0
58.0153 58.0
58.0743 61.0
58.1334 56.0
58.1925 54.0
58.2516 63.0
58.3107 52.0
58.3698 49.0
58.4289 60.0
58.488 65.0
58.547 58.0
58.6061 56.0
58.6652 55.0
58.7243 69.0
58.7834 49.0
58.8425 62.0
58.9016 47.0
58.9606 43.0
59.0197 50.0
59.0788 63.0
59.1379 59.0
59.197 64.0
59.2561 50.0
59.3152 56.0
59.3742 70.0
59.4333 56.0
59.4924 49.0
59.5515 54.0
59.6106 59.0
59.6697 51.0
59.7288 48.0
59.7878 56.0
59.8469 62.0
59.906 48.0
59.9651 61.0
60.0242 45.0
60.0833 52.0
60.1424 73.0
60.2015 54.0
60.2605 61.0
60.3196 69.0
60.3787 57.0
60.4378 62.0
60.4969 58.0
60.556 53.0
60.6151 61.0
60.6741 61.0
60.7332 86.0
60.7923 188.0
60.8514 713.0
60.9105 332.0
60.9696 139.0
61.0287 91.0
61.0877 79.0
61.1468 73.0
61.2059 62.0
61.265 66.0
61.3241 58.0
61.3832 79.0
61.4423 80.0
61.5014 66.0
61.5604 77.0
61.6195 62.0
61.6786 73.0
61.7377 65.0
61.7968 62.0
61.8559 66.0
61.915 61.0
61.974 52.0
62.0331 67.0
62.0922 59.0
62.1513 64.0
62.2104 59.0
62.2695 71.0
62.3286 63.0
62.3876 66.0
62.4467 64.0
62.5058 57.0
62.5649 60.0
62.624 59.0
62.6831 53.0
62.7422 77.0
62.8012 61.0
62.8603 62.0
62.9194 61.0
62.9785 59.0
63.0376 53.0
63.0967 61.0
63.1558 59.0
63.2149 59.0
63.2739 77.0
63.333 75.0
63.3921 68.0
63.4512 62.0
63.5103 69.0
63.5694 59.0
63.6285 71.0
63.6875 67.0
63.7466 63.0
63.8057 82.0
63.8648 74.0
63.9239 63.0
63.983 72.0
64.0421 67.0
64.1011 69.0
64.1602 57.0
64.2193 67.0
64.2784 59.0
64.3375 70.0
64.3966 67.0
64.4557 84.0
64.5148 57.0
64.5738 72.0
64.6329 67.0
64.692 73.0
64.7511 67.0
64.8102 81.0
64.8693 86.0
64.9284 110.0
64.9874 111.0
65.0465 92.0
65.1056 100.0
65.1647 106.0
65.2238 93.0
65.2829 84.0
65.342 96.0
65.401 73.0
65.4601 90.0
65.5192 98.0
65.5783 79.0
65.6374 79.0
65.6965 85.0
65.7556 86.0
65.8146 94.0
65.8737 97.0
65.9328 80.0
65.9919 95.0
66.051 96.0
66.1101 110.0
66.1692 96.0
66.2283 114.0
66.2873 125.0
66.3464 127.0
66.4055 131.0
66.4646 134.0
66.5237 148.0
66.5828 142.0
66.6419 159.0
66.7009 159.0
66.76 162.0
66.8191 179.0
66.8782 173.0
66.9373 190.0
66.9964 191.0
67.0555 183.0
67.1145 192.0
67.1736 259.0
67.2327 279.0
67.2918 288.0
67.3509 288.0
67.41 308.0
67.4691 352.0
67.5282 376.0
67.5872 458.0
67.6463 514.0
67.7054 630.0
67.7645 1074.0
67.8236 1675.0
67.8827 1792.0
67.9418 1619.0
68.0008 2591.0
68.0599 5761.0
68.119 32002.0
68.1781 148801.0
68.2372 12889.0
68.2963 11962.0
68.3554 108409.0
68.4144 11457.0
68.4735 3139.0
68.5326 1876.0
68.5917 1282.0
68.6508 981.0
68.7099 746.0
68.769 600.0
68.828 531.0
68.8871 443.0
68.9462 391.0
69.0053 342.0
69.0644 318.0
69.1235 285.0
69.1826 266.0
69.2417 208.0
69.3007 188.0
69.3598 169.0
69.4189 172.0
69.478 152.0
69.5371 150.0
69.5962 123.0
69.6553 121.0
69.7143 118.0
69.7734 101.0
69.8325 102.0
69.8916 97.0
69.9507 100.0
70.0098 92.0
70.0689 85.0
70.1279 109.0
70.187 84.0
70.2461 94.0
70.3052 84.0
70.3643 70.0
70.4234 84.0
70.4825 83.0
70.5416 90.0
70.6006 82.0
70.6597 76.0
70.7188 61.0
70.7779 69.0
70.837 86.0
70.8961 77.0
70.9552 92.0
71.0142 79.0
71.0733 86.0
71.1324 68.0
71.1915 67.0
71.2506 64.0
71.3097 69.0
71.3688 77.0
71.4278 69.0
71.4869 79.0
71.546 72.0
71.6051 62.0
71.6642 69.0
71.6691 72.0