Folder: DataAnalysis/data/w6930m/XRD_Omega

Note: README.md
# Methods
## RSM analysis

Check out [doc](documentation/RSM.md)

File: film_m_can_omega_4deg_step_0.005deg0_C3.xy
30.33640 34.0
30.35140 32.0
30.36640 28.0
30.38140 44.0
30.39640 32.0
30.41140 29.0
30.42640 41.0
30.44140 40.0
30.45640 32.0
30.47140 32.0
30.48640 30.0
30.50140 44.0
30.51640 36.0
30.53140 38.0
30.54640 33.0
30.56140 34.0
30.57640 33.0
30.59140 46.0
30.60640 44.0
30.62140 31.0
30.63640 50.0
30.65140 36.0
30.66640 42.0
30.68140 41.0
30.69640 44.0
30.71140 37.0
30.72640 41.0
30.74140 31.0
30.75640 37.0
30.77140 19.0
30.78640 38.0
30.80140 29.0
30.81640 35.0
30.83140 35.0
30.84640 36.0
30.86140 38.0
30.87640 33.0
30.89140 29.0
30.90640 29.0
30.92140 45.0
30.93640 36.0
30.95140 37.0
30.96640 34.0
30.98140 34.0
30.99640 46.0
31.01140 26.0
31.02640 25.0
31.04140 44.0
31.05640 39.0
31.07140 48.0
31.08640 35.0
31.10140 37.0
31.11640 35.0
31.13140 36.0
31.14640 36.0
31.16140 49.0
31.17640 38.0
31.19140 27.0
31.20640 32.0
31.22140 47.0
31.23640 44.0
31.25140 22.0
31.26640 42.0
31.28140 36.0
31.29640 35.0
31.31140 28.0
31.32640 41.0
31.34140 42.0
31.35640 42.0
31.37140 40.0
31.38640 39.0
31.40140 26.0
31.41640 26.0
31.43140 33.0
31.44640 35.0
31.46140 38.0
31.47640 41.0
31.49140 31.0
31.50640 31.0
31.52140 26.0
31.53640 44.0
31.55140 39.0
31.56640 43.0
31.58140 31.0
31.59640 35.0
31.61140 39.0
31.62640 25.0
31.64140 28.0
31.65640 46.0
31.67140 46.0
31.68640 29.0
31.70140 35.0
31.71640 37.0
31.73140 40.0
31.74640 40.0
31.76140 36.0
31.77640 46.0
31.79140 44.0
31.80640 42.0
31.82140 35.0
31.83640 42.0
31.85140 37.0
31.86640 50.0
31.88140 38.0
31.89640 36.0
31.91140 43.0
31.92640 37.0
31.94140 43.0
31.95640 37.0
31.97140 33.0
31.98640 37.0
32.00140 33.0
32.01640 39.0
32.03140 39.0
32.04640 48.0
32.06140 44.0
32.07640 45.0
32.09140 35.0
32.10640 48.0
32.12140 44.0
32.13640 43.0
32.15140 48.0
32.16640 36.0
32.18140 40.0
32.19640 57.0
32.21140 52.0
32.22640 70.0
32.24140 80.0
32.25640 83.0
32.27140 72.0
32.28640 74.0
32.30140 92.0
32.31640 131.0
32.33140 112.0
32.34640 101.0
32.36140 76.0
32.37640 87.0
32.39140 100.0
32.40640 78.0
32.42140 66.0
32.43640 69.0
32.45140 78.0
32.46640 51.0
32.48140 43.0
32.49640 47.0
32.51140 38.0
32.52640 48.0
32.54140 44.0
32.55640 38.0
32.57140 42.0
32.58640 41.0
32.60140 42.0
32.61640 46.0
32.63140 35.0
32.64640 41.0
32.66140 26.0
32.67640 38.0
32.69140 49.0
32.70640 49.0
32.72140 53.0
32.73640 38.0
32.75140 39.0
32.76640 47.0
32.78140 51.0
32.79640 39.0
32.81140 37.0
32.82640 39.0
32.84140 44.0
32.85640 42.0
32.87140 30.0
32.88640 50.0
32.90140 40.0
32.91640 41.0
32.93140 35.0
32.94640 42.0
32.96140 42.0
32.97640 36.0
32.99140 33.0
33.00640 36.0
33.02140 42.0
33.03640 31.0
33.05140 38.0
33.06640 35.0
33.08140 24.0
33.09640 31.0
33.11140 26.0
33.12640 36.0
33.14140 37.0
33.15640 46.0
33.17140 37.0
33.18640 32.0
33.20140 32.0
33.21640 34.0
33.23140 41.0
33.24640 43.0
33.26140 36.0
33.27640 48.0
33.29140 35.0
33.30640 38.0
33.32140 35.0
33.33640 36.0
33.35140 40.0
33.36640 38.0
33.38140 34.0
33.39640 43.0
33.41140 47.0
33.42640 35.0
33.44140 33.0
33.45640 37.0
33.47140 34.0
33.48640 39.0
33.50140 30.0
33.51640 35.0
33.53140 36.0
33.54640 32.0
33.56140 27.0
33.57640 40.0
33.59140 23.0
33.60640 28.0
33.62140 30.0
33.63640 27.0
33.65140 33.0
33.66640 50.0
33.68140 34.0
33.69640 28.0
33.71140 37.0
33.72640 28.0
33.74140 30.0
33.75640 26.0
33.77140 40.0
33.78640 31.0
33.80140 43.0
33.81640 38.0
33.83140 31.0
33.84640 34.0
33.86140 34.0
33.87640 25.0
33.89140 36.0
33.90640 37.0
33.92140 31.0
33.93640 33.0
33.95140 36.0
33.96640 32.0
33.98140 26.0
33.99640 28.0
34.01140 37.0
34.02640 35.0
34.04140 34.0
34.05640 26.0
34.07140 42.0
34.08640 26.0
34.10140 38.0
34.11640 34.0
34.13140 40.0
34.14640 34.0
34.16140 25.0
34.17640 31.0
34.19140 33.0
34.20640 31.0
34.22140 36.0
34.23640 29.0
34.25140 25.0
34.26640 27.0
34.28140 36.0
34.29640 36.0