Folder: DataAnalysis/data/W6902c/XRD_Omega

Note: data/W6902c/XRD_Omega/W6902c_omega_peaks.TXT
No.	Label	Pos. [記mega]	FWHM Left [記mega]	Area [cts*記mega]	Backgr.[cts]	d-spacing [魔	Height [cts]	Shape Left	Status	Integral Breadth [記mega]	FWHM Right [記mega]	Shape Right	Obs. Lorentz B [記mega]	Obs. Gauss B [記mega]	Instr. Lorentz B [記mega]	Instr. Gauss B [記mega]	Crystallite Size [魔	Micro Strain [%]	Crystallite Size only [魔	Micro Strain only [%]
1	Cr2O3 0 0 6	19,6033(1)	0,1173(5)	945,77	56,51	 	6122(22)	0,594(5)	Included	0,154484	 	 	0,097539	0,084105	0,075219	0,063720	4013,373000	0,138647	1280,264000	0,176715

Note: README.md
# Methods
## RSM analysis

Check out [doc](documentation/RSM.md)

File: scan_omega_4deg_step_0.005deg0_C3_3.xy
17.63460 58.0
17.64960 72.0
17.66460 67.0
17.67960 64.0
17.69460 64.0
17.70960 75.0
17.72460 61.0
17.73960 58.0
17.75460 59.0
17.76960 64.0
17.78460 63.0
17.79960 78.0
17.81460 63.0
17.82960 59.0
17.84460 50.0
17.85960 64.0
17.87460 62.0
17.88960 62.0
17.90460 61.0
17.91960 54.0
17.93460 61.0
17.94960 58.0
17.96460 45.0
17.97960 53.0
17.99460 52.0
18.00960 61.0
18.02460 53.0
18.03960 52.0
18.05460 57.0
18.06960 71.0
18.08460 64.0
18.09960 59.0
18.11460 53.0
18.12960 64.0
18.14460 64.0
18.15960 62.0
18.17460 67.0
18.18960 62.0
18.20460 58.0
18.21960 68.0
18.23460 76.0
18.24960 63.0
18.26460 52.0
18.27960 63.0
18.29460 48.0
18.30960 88.0
18.32460 49.0
18.33960 55.0
18.35460 58.0
18.36960 72.0
18.38460 67.0
18.39960 61.0
18.41460 60.0
18.42960 62.0
18.44460 71.0
18.45960 55.0
18.47460 65.0
18.48960 76.0
18.50460 77.0
18.51960 66.0
18.53460 63.0
18.54960 69.0
18.56460 65.0
18.57960 71.0
18.59460 84.0
18.60960 63.0
18.62460 78.0
18.63960 74.0
18.65460 76.0
18.66960 70.0
18.68460 67.0
18.69960 74.0
18.71460 82.0
18.72960 72.0
18.74460 72.0
18.75960 85.0
18.77460 67.0
18.78960 92.0
18.80460 82.0
18.81960 77.0
18.83460 57.0
18.84960 81.0
18.86460 70.0
18.87960 79.0
18.89460 98.0
18.90960 92.0
18.92460 80.0
18.93960 85.0
18.95460 84.0
18.96960 99.0
18.98460 88.0
18.99960 97.0
19.01460 86.0
19.02960 92.0
19.04460 94.0
19.05960 102.0
19.07460 111.0
19.08960 111.0
19.10460 121.0
19.11960 109.0
19.13460 103.0
19.14960 146.0
19.16460 148.0
19.17960 131.0
19.19460 143.0
19.20960 138.0
19.22460 156.0
19.23960 143.0
19.25460 167.0
19.26960 190.0
19.28460 154.0
19.29960 232.0
19.31460 216.0
19.32960 218.0
19.34460 245.0
19.35960 244.0
19.37460 301.0
19.38960 333.0
19.40460 382.0
19.41960 368.0
19.43460 464.0
19.44960 525.0
19.46460 677.0
19.47960 979.0
19.49460 1455.0
19.50960 1971.0
19.52460 2585.0
19.53960 3046.0
19.55460 3879.0
19.56960 5493.0
19.58460 7037.0
19.59960 8342.0
19.61460 8482.0
19.62960 8026.0
19.64460 7141.0
19.65960 6203.0
19.67460 4967.0
19.68960 3907.0
19.70460 2929.0
19.71960 2190.0
19.73460 1663.0
19.74960 1256.0
19.76460 864.0
19.77960 681.0
19.79460 646.0
19.80960 505.0
19.82460 443.0
19.83960 399.0
19.85460 337.0
19.86960 323.0
19.88460 285.0
19.89960 271.0
19.91460 249.0
19.92960 232.0
19.94460 196.0
19.95960 198.0
19.97460 213.0
19.98960 164.0
20.00460 211.0
20.01960 146.0
20.03460 154.0
20.04960 143.0
20.06460 130.0
20.07960 113.0
20.09460 139.0
20.10960 122.0
20.12460 121.0
20.13960 98.0
20.15460 96.0
20.16960 134.0
20.18460 94.0
20.19960 82.0
20.21460 94.0
20.22960 100.0
20.24460 77.0
20.25960 70.0
20.27460 74.0
20.28960 88.0
20.30460 77.0
20.31960 104.0
20.33460 84.0
20.34960 71.0
20.36460 69.0
20.37960 67.0
20.39460 61.0
20.40960 67.0
20.42460 84.0
20.43960 67.0
20.45460 78.0
20.46960 67.0
20.48460 85.0
20.49960 66.0
20.51460 63.0
20.52960 63.0
20.54460 78.0
20.55960 72.0
20.57460 64.0
20.58960 57.0
20.60460 70.0
20.61960 73.0
20.63460 73.0
20.64960 69.0
20.66460 62.0
20.67960 69.0
20.69460 66.0
20.70960 72.0
20.72460 56.0
20.73960 66.0
20.75460 45.0
20.76960 58.0
20.78460 66.0
20.79960 56.0
20.81460 62.0
20.82960 62.0
20.84460 85.0
20.85960 62.0
20.87460 59.0
20.88960 49.0
20.90460 59.0
20.91960 61.0
20.93460 58.0
20.94960 74.0
20.96460 57.0
20.97960 53.0
20.99460 58.0
21.00960 61.0
21.02460 58.0
21.03960 86.0
21.05460 61.0
21.06960 60.0
21.08460 53.0
21.09960 64.0
21.11460 47.0
21.12960 58.0
21.14460 54.0
21.15960 56.0
21.17460 66.0
21.18960 64.0
21.20460 68.0
21.21960 61.0
21.23460 50.0
21.24960 69.0
21.26460 55.0
21.27960 50.0
21.29460 62.0
21.30960 71.0
21.32460 52.0
21.33960 58.0
21.35460 48.0
21.36960 55.0
21.38460 48.0
21.39960 61.0
21.41460 63.0
21.42960 62.0
21.44460 53.0
21.45960 67.0
21.47460 64.0
21.48960 61.0
21.50460 51.0
21.51960 59.0
21.53460 52.0
21.54960 62.0
21.56460 57.0
21.57960 47.0
21.59460 55.0