Folder: DataAnalysis/data/W6902c/XRD_2ThetaOmega

Note: data/W6902c/XRD_2ThetaOmega/W6902c_peaks.TXT
No.	Label	Pos. [°2Th.]	FWHM Left [°2Th.]	Area [cts*°2Th.]	Backgr.[cts]	d-spacing [Å]	Height [cts]	Shape Left	Status	Integral Breadth [°2Th.]	FWHM Right [°2Th.]	Shape Right	Obs. Lorentz B [°2Th.]	Obs. Gauss B [°2Th.]	Instr. Lorentz B [°2Th.]	Instr. Gauss B [°2Th.]	Crystallite Size [Å]	Micro Strain [%]	Crystallite Size only [Å]	Micro Strain only [%]
1	Cr2O3 0 0 6	39,1471(3)	0,171(1)	945,28	124,07	2,29929	3742(20)	0,87(1)	Included	0,252611	 	 	0,222746	0,073777	0,073933	0,062633	629,536600	0,047846	580,229300	0,198136
2	Al2O3 0 0 6	41,62431(3)	0,05199(6)	4502,96	135,92	2,16799	72685(90)	0,331(2)	Included	0,061951	 	 	0,022744	0,046346	0,073977	0,062671	-1843,163000	-0,048428	29858,480000	0,003630

Note: README.md
# Methods
## RSM analysis

Check out [doc](documentation/RSM.md)

File: scan_2th-om_c_Cr2O3_35-45deg_PIXscan_4min_C3.xy
35.0021 127.0
35.0365 116.0
35.071 110.0
35.1055 120.0
35.1399 153.0
35.1744 117.0
35.2089 125.0
35.2433 135.0
35.2778 102.0
35.3123 111.0
35.3467 114.0
35.3812 140.0
35.4157 129.0
35.4501 122.0
35.4846 122.0
35.5191 110.0
35.5535 111.0
35.588 114.0
35.6225 102.0
35.6569 117.0
35.6914 115.0
35.7259 135.0
35.7603 107.0
35.7948 114.0
35.8293 105.0
35.8637 123.0
35.8982 106.0
35.9327 120.0
35.9671 114.0
36.0016 104.0
36.0361 125.0
36.0705 121.0
36.105 126.0
36.1395 112.0
36.1739 120.0
36.2084 113.0
36.2429 103.0
36.2773 118.0
36.3118 108.0
36.3463 124.0
36.3807 120.0
36.4152 101.0
36.4497 108.0
36.4841 116.0
36.5186 100.0
36.5531 114.0
36.5875 96.0
36.622 114.0
36.6565 103.0
36.6909 119.0
36.7254 111.0
36.7599 100.0
36.7943 83.0
36.8288 97.0
36.8633 114.0
36.8977 108.0
36.9322 116.0
36.9667 103.0
37.0011 119.0
37.0356 129.0
37.0701 127.0
37.1045 105.0
37.139 133.0
37.1735 124.0
37.2079 115.0
37.2424 141.0
37.2769 130.0
37.3114 122.0
37.3458 130.0
37.3803 149.0
37.4148 186.0
37.4492 321.0
37.4837 209.0
37.5182 156.0
37.5526 120.0
37.5871 128.0
37.6216 129.0
37.656 119.0
37.6905 138.0
37.725 133.0
37.7594 137.0
37.7939 138.0
37.8284 142.0
37.8628 134.0
37.8973 132.0
37.9318 156.0
37.9662 146.0
38.0007 136.0
38.0352 153.0
38.0696 129.0
38.1041 158.0
38.1386 175.0
38.173 166.0
38.2075 144.0
38.242 182.0
38.2764 160.0
38.3109 185.0
38.3454 176.0
38.3798 198.0
38.4143 173.0
38.4488 196.0
38.4832 209.0
38.5177 216.0
38.5522 209.0
38.5866 269.0
38.6211 276.0
38.6556 223.0
38.69 267.0
38.7245 323.0
38.759 362.0
38.7934 363.0
38.8279 489.0
38.8624 525.0
38.8968 588.0
38.9313 692.0
38.9658 967.0
39.0002 1083.0
39.0347 1506.0
39.0692 2292.0
39.1036 3664.0
39.1381 4448.0
39.1726 4498.0
39.207 4116.0
39.2415 3639.0
39.276 2942.0
39.3104 2182.0
39.3449 1538.0
39.3794 1034.0
39.4138 782.0
39.4483 635.0
39.4828 477.0
39.5172 399.0
39.5517 347.0
39.5862 272.0
39.6206 297.0
39.6551 235.0
39.6896 210.0
39.724 186.0
39.7585 163.0
39.793 169.0
39.8274 156.0
39.8619 181.0
39.8964 167.0
39.9308 171.0
39.9653 152.0
39.9998 152.0
40.0342 128.0
40.0687 138.0
40.1032 149.0
40.1376 141.0
40.1721 168.0
40.2066 130.0
40.241 141.0
40.2755 133.0
40.31 127.0
40.3444 141.0
40.3789 132.0
40.4134 138.0
40.4478 130.0
40.4823 156.0
40.5168 148.0
40.5512 147.0
40.5857 134.0
40.6202 152.0
40.6546 142.0
40.6891 172.0
40.7236 162.0
40.758 166.0
40.7925 166.0
40.827 159.0
40.8615 160.0
40.8959 168.0
40.9304 197.0
40.9649 198.0
40.9993 194.0
41.0338 182.0
41.0683 181.0
41.1027 214.0
41.1372 200.0
41.1717 197.0
41.2061 283.0
41.2406 282.0
41.2751 305.0
41.3095 346.0
41.344 341.0
41.3785 461.0
41.4129 763.0
41.4474 1085.0
41.4819 1032.0
41.5163 1226.0
41.5508 2554.0
41.5853 16054.0
41.6197 65479.0
41.6542 33211.0
41.6887 8556.0
41.7231 32344.0
41.7576 22585.0
41.7921 2638.0
41.8265 1179.0
41.861 763.0
41.8955 582.0
41.9299 453.0
41.9644 393.0
41.9989 334.0
42.0333 315.0
42.0678 291.0
42.1023 222.0
42.1367 274.0
42.1712 227.0
42.2057 203.0
42.2401 203.0
42.2746 177.0
42.3091 153.0
42.3435 162.0
42.378 174.0
42.4125 155.0
42.4469 142.0
42.4814 145.0
42.5159 151.0
42.5503 147.0
42.5848 142.0
42.6193 166.0
42.6537 152.0
42.6882 153.0
42.7227 136.0
42.7571 127.0
42.7916 136.0
42.8261 124.0
42.8605 134.0
42.895 118.0
42.9295 134.0
42.9639 113.0
42.9984 133.0
43.0329 135.0
43.0673 138.0
43.1018 110.0
43.1363 97.0
43.1707 125.0
43.2052 147.0
43.2397 111.0
43.2741 124.0
43.3086 133.0
43.3431 114.0
43.3775 115.0
43.412 135.0
43.4465 129.0
43.4809 114.0
43.5154 143.0
43.5499 138.0
43.5843 136.0
43.6188 118.0
43.6533 120.0
43.6877 124.0
43.7222 133.0
43.7567 113.0
43.7911 120.0
43.8256 123.0
43.8601 124.0
43.8945 142.0
43.929 130.0
43.9635 132.0
43.9979 121.0
44.0324 142.0
44.0669 160.0
44.1013 155.0
44.1358 156.0
44.1703 153.0
44.2047 171.0
44.2392 199.0
44.2737 202.0
44.3081 234.0
44.3426 235.0
44.3771 272.0
44.4116 266.0
44.446 281.0
44.4805 255.0
44.515 227.0
44.5494 228.0
44.5839 192.0
44.6184 186.0
44.6528 164.0
44.6873 171.0
44.7218 142.0
44.7562 128.0
44.7907 144.0
44.8252 121.0
44.8596 136.0
44.8941 119.0
44.9286 126.0
44.963 116.0
44.9975 141.0