Folder: DataAnalysis/data/w6928r/XRD_Omega

Note: data/w6928r/XRD_Omega/W6928r_omega_peaks.TXT
No.	Label	Pos. [記mega]	FWHM Left [記mega]	Area [cts*記mega]	Backgr.[cts]	d-spacing [魔	Height [cts]	Shape Left	Status	Integral Breadth [記mega]	FWHM Right [記mega]	Shape Right	Obs. Lorentz B [記mega]	Obs. Gauss B [記mega]	Instr. Lorentz B [記mega]	Instr. Gauss B [記mega]	Crystallite Size [魔	Micro Strain [%]	Crystallite Size only [魔	Micro Strain only [%]
1	Cr2O3 0 2 4	25,8785(6)	0,883(2)	1585,62	23,00	 	1560(3)	0,234(3)	Included	1,016463	 	 	0,267861	0,835746	0,074515	0,063124	468,433200	1,582672	94,297840	1,824060

Note: README.md
# Methods
## RSM analysis

Check out [doc](documentation/RSM.md)

File: film_r_scan_omega_4deg_step_0.005deg0_C1.xy
23.90020 40.0
23.91520 34.0
23.93020 38.0
23.94520 27.0
23.96020 24.0
23.97520 29.0
23.99020 35.0
24.00520 26.0
24.02020 30.0
24.03520 37.0
24.05020 40.0
24.06520 27.0
24.08020 40.0
24.09520 32.0
24.11020 36.0
24.12520 30.0
24.14020 33.0
24.15520 29.0
24.17020 38.0
24.18520 44.0
24.20020 38.0
24.21520 33.0
24.23020 39.0
24.24520 40.0
24.26020 48.0
24.27520 41.0
24.29020 42.0
24.30520 34.0
24.32020 55.0
24.33520 41.0
24.35020 53.0
24.36520 45.0
24.38020 59.0
24.39520 43.0
24.41020 50.0
24.42520 51.0
24.44020 59.0
24.45520 47.0
24.47020 62.0
24.48520 40.0
24.50020 62.0
24.51520 63.0
24.53020 51.0
24.54520 56.0
24.56020 62.0
24.57520 54.0
24.59020 63.0
24.60520 57.0
24.62020 63.0
24.63520 72.0
24.65020 75.0
24.66520 87.0
24.68020 81.0
24.69520 84.0
24.71020 83.0
24.72520 83.0
24.74020 94.0
24.75520 109.0
24.77020 90.0
24.78520 112.0
24.80020 92.0
24.81520 100.0
24.83020 118.0
24.84520 130.0
24.86020 143.0
24.87520 142.0
24.89020 129.0
24.90520 155.0
24.92020 157.0
24.93520 154.0
24.95020 184.0
24.96520 180.0
24.98020 194.0
24.99520 218.0
25.01020 252.0
25.02520 261.0
25.04020 229.0
25.05520 253.0
25.07020 264.0
25.08520 253.0
25.10020 286.0
25.11520 341.0
25.13020 337.0
25.14520 382.0
25.16020 393.0
25.17520 409.0
25.19020 434.0
25.20520 473.0
25.22020 521.0
25.23520 550.0
25.25020 555.0
25.26520 590.0
25.28020 658.0
25.29520 652.0
25.31020 732.0
25.32520 738.0
25.34020 780.0
25.35520 837.0
25.37020 932.0
25.38520 883.0
25.40020 1021.0
25.41520 1084.0
25.43020 980.0
25.44520 1134.0
25.46020 1140.0
25.47520 1191.0
25.49020 1282.0
25.50520 1407.0
25.52020 1346.0
25.53520 1425.0
25.55020 1414.0
25.56520 1568.0
25.58020 1651.0
25.59520 1714.0
25.61020 1764.0
25.62520 1764.0
25.64020 1852.0
25.65520 1900.0
25.67020 1957.0
25.68520 2059.0
25.70020 2132.0
25.71520 2163.0
25.73020 2250.0
25.74520 2243.0
25.76020 2285.0
25.77520 2356.0
25.79020 2374.0
25.80520 2369.0
25.82020 2447.0
25.83520 2432.0
25.85020 2337.0
25.86520 2481.0
25.88020 2521.0
25.89520 2438.0
25.91020 2416.0
25.92520 2303.0
25.94020 2471.0
25.95520 2448.0
25.97020 2428.0
25.98520 2294.0
26.00020 2242.0
26.01520 2387.0
26.03020 2292.0
26.04520 2224.0
26.06020 2110.0
26.07520 2025.0
26.09020 2069.0
26.10520 1969.0
26.12020 1879.0
26.13520 1822.0
26.15020 1795.0
26.16520 1728.0
26.18020 1758.0
26.19520 1625.0
26.21020 1600.0
26.22520 1455.0
26.24020 1429.0
26.25520 1415.0
26.27020 1353.0
26.28520 1284.0
26.30020 1290.0
26.31520 1161.0
26.33020 1112.0
26.34520 1096.0
26.36020 1062.0
26.37520 1058.0
26.39020 983.0
26.40520 922.0
26.42020 908.0
26.43520 865.0
26.45020 838.0
26.46520 785.0
26.48020 717.0
26.49520 709.0
26.51020 667.0
26.52520 617.0
26.54020 642.0
26.55520 571.0
26.57020 559.0
26.58520 527.0
26.60020 485.0
26.61520 500.0
26.63020 488.0
26.64520 422.0
26.66020 409.0
26.67520 386.0
26.69020 352.0
26.70520 344.0
26.72020 354.0
26.73520 315.0
26.75020 294.0
26.76520 304.0
26.78020 273.0
26.79520 240.0
26.81020 271.0
26.82520 258.0
26.84020 209.0
26.85520 216.0
26.87020 245.0
26.88520 180.0
26.90020 181.0
26.91520 175.0
26.93020 193.0
26.94520 172.0
26.96020 157.0
26.97520 161.0
26.99020 157.0
27.00520 144.0
27.02020 147.0
27.03520 129.0
27.05020 138.0
27.06520 141.0
27.08020 113.0
27.09520 114.0
27.11020 117.0
27.12520 102.0
27.14020 114.0
27.15520 87.0
27.17020 92.0
27.18520 84.0
27.20020 95.0
27.21520 83.0
27.23020 62.0
27.24520 89.0
27.26020 70.0
27.27520 64.0
27.29020 66.0
27.30520 79.0
27.32020 71.0
27.33520 64.0
27.35020 77.0
27.36520 52.0
27.38020 58.0
27.39520 67.0
27.41020 63.0
27.42520 42.0
27.44020 42.0
27.45520 51.0
27.47020 53.0
27.48520 51.0
27.50020 41.0
27.51520 49.0
27.53020 43.0
27.54520 42.0
27.56020 52.0
27.57520 57.0
27.59020 44.0
27.60520 38.0
27.62020 38.0
27.63520 61.0
27.65020 43.0
27.66520 33.0
27.68020 33.0
27.69520 31.0
27.71020 39.0
27.72520 35.0
27.74020 32.0
27.75520 37.0
27.77020 29.0
27.78520 36.0
27.80020 27.0
27.81520 32.0
27.83020 37.0
27.84520 38.0
27.86020 31.0