Folder: DataAnalysis/data/w6928r/XRD_2ThetaOmega

Note: data/w6928r/XRD_2ThetaOmega/W6928r_peaks.TXT
No.	Label	Pos. [°2Th.]	FWHM Left [°2Th.]	Area [cts*°2Th.]	Backgr.[cts]	d-spacing [Å]	Height [cts]	Shape Left	Status	Integral Breadth [°2Th.]	FWHM Right [°2Th.]	Shape Right	Obs. Lorentz B [°2Th.]	Obs. Gauss B [°2Th.]	Instr. Lorentz B [°2Th.]	Instr. Gauss B [°2Th.]	Crystallite Size [Å]	Micro Strain [%]	Crystallite Size only [Å]	Micro Strain only [%]
1	Cr2O3 0 2 4	49,9412(4)	0,319(1)	616,96	141,37	1,82469	1815(7)	0,00(1)	Included	0,339975	 	 	0,000832	0,339975	0,074536	0,063145	-1321,115000	0,313004	291,447700	0,313039
2	Al2O3 0 2 4	52,49862(1)	0,03825(3)	14506,97	187,72	1,74166	288844(229)	0,588(1)	Included	0,050224	 	 	0,031401	0,027602	0,074846	0,063408	-2265,372000	-0,050510	31119,310000	0,002798

Note: README.md
# Methods
## RSM analysis

Check out [doc](documentation/RSM.md)

File: scan_2th-om_r2_Cr2O3_45-55deg_PIXscan_5min_C1.xy
45.0025 65.0
45.0369 49.0
45.0714 60.0
45.1059 54.0
45.1403 47.0
45.1748 43.0
45.2093 41.0
45.2437 54.0
45.2782 52.0
45.3127 39.0
45.3471 50.0
45.3816 54.0
45.4161 41.0
45.4505 50.0
45.485 40.0
45.5195 50.0
45.5539 64.0
45.5884 60.0
45.6229 52.0
45.6573 52.0
45.6918 55.0
45.7263 38.0
45.7607 49.0
45.7952 40.0
45.8297 49.0
45.8641 49.0
45.8986 53.0
45.9331 46.0
45.9675 48.0
46.002 44.0
46.0365 49.0
46.0709 39.0
46.1054 52.0
46.1399 41.0
46.1743 45.0
46.2088 30.0
46.2433 54.0
46.2777 39.0
46.3122 52.0
46.3467 53.0
46.3811 34.0
46.4156 56.0
46.4501 44.0
46.4845 45.0
46.519 48.0
46.5535 53.0
46.5879 52.0
46.6224 53.0
46.6569 57.0
46.6913 55.0
46.7258 51.0
46.7603 52.0
46.7947 66.0
46.8292 60.0
46.8637 58.0
46.8981 56.0
46.9326 58.0
46.9671 71.0
47.0015 58.0
47.036 78.0
47.0705 302.0
47.1049 990.0
47.1394 447.0
47.1739 217.0
47.2083 105.0
47.2428 82.0
47.2773 62.0
47.3118 69.0
47.3462 59.0
47.3807 72.0
47.4152 67.0
47.4496 62.0
47.4841 65.0
47.5186 58.0
47.553 53.0
47.5875 66.0
47.622 63.0
47.6564 54.0
47.6909 58.0
47.7254 48.0
47.7598 55.0
47.7943 58.0
47.8288 64.0
47.8632 58.0
47.8977 58.0
47.9322 72.0
47.9666 51.0
48.0011 56.0
48.0356 50.0
48.07 55.0
48.1045 72.0
48.139 58.0
48.1734 57.0
48.2079 73.0
48.2424 49.0
48.2768 52.0
48.3113 61.0
48.3458 45.0
48.3802 60.0
48.4147 71.0
48.4492 49.0
48.4836 63.0
48.5181 57.0
48.5526 72.0
48.587 56.0
48.6215 67.0
48.656 64.0
48.6904 66.0
48.7249 67.0
48.7594 68.0
48.7938 67.0
48.8283 64.0
48.8628 70.0
48.8972 80.0
48.9317 81.0
48.9662 69.0
49.0006 84.0
49.0351 71.0
49.0696 104.0
49.104 85.0
49.1385 92.0
49.173 93.0
49.2074 81.0
49.2419 89.0
49.2764 123.0
49.3108 116.0
49.3453 124.0
49.3798 119.0
49.4142 129.0
49.4487 147.0
49.4832 173.0
49.5176 209.0
49.5521 237.0
49.5866 285.0
49.621 337.0
49.6555 433.0
49.69 504.0
49.7244 634.0
49.7589 878.0
49.7934 1137.0
49.8278 1373.0
49.8623 1781.0
49.8968 2279.0
49.9312 2855.0
49.9657 2926.0
50.0002 2790.0
50.0346 2450.0
50.0691 2274.0
50.1036 1899.0
50.138 1580.0
50.1725 1186.0
50.207 894.0
50.2414 686.0
50.2759 553.0
50.3104 420.0
50.3448 338.0
50.3793 297.0
50.4138 239.0
50.4482 220.0
50.4827 192.0
50.5172 188.0
50.5516 151.0
50.5861 148.0
50.6206 166.0
50.655 126.0
50.6895 124.0
50.724 121.0
50.7584 114.0
50.7929 104.0
50.8274 104.0
50.8619 104.0
50.8963 122.0
50.9308 127.0
50.9653 138.0
50.9997 118.0
51.0342 125.0
51.0687 119.0
51.1031 118.0
51.1376 126.0
51.1721 124.0
51.2065 119.0
51.241 161.0
51.2755 158.0
51.3099 163.0
51.3444 191.0
51.3789 178.0
51.4133 168.0
51.4478 188.0
51.4823 189.0
51.5167 197.0
51.5512 193.0
51.5857 273.0
51.6201 265.0
51.6546 283.0
51.6891 277.0
51.7235 283.0
51.758 312.0
51.7925 317.0
51.8269 328.0
51.8614 342.0
51.8959 399.0
51.9303 384.0
51.9648 438.0
51.9993 464.0
52.0337 526.0
52.0682 611.0
52.1027 631.0
52.1371 734.0
52.1716 936.0
52.2061 1377.0
52.2405 2189.0
52.275 2493.0
52.3095 2236.0
52.3439 2453.0
52.3784 3535.0
52.4129 6900.0
52.4473 18995.0
52.4818 178333.0
52.5163 155821.0
52.5507 20935.0
52.5852 14230.0
52.6197 75665.0
52.6541 93719.0
52.6886 13053.0
52.7231 4553.0
52.7575 2792.0
52.792 2015.0
52.8265 1418.0
52.8609 1230.0
52.8954 942.0
52.9299 791.0
52.9643 711.0
52.9988 644.0
53.0333 584.0
53.0677 485.0
53.1022 393.0
53.1367 405.0
53.1711 392.0
53.2056 343.0
53.2401 334.0
53.2745 288.0
53.309 271.0
53.3435 213.0
53.3779 210.0
53.4124 170.0
53.4469 186.0
53.4813 173.0
53.5158 174.0
53.5503 135.0
53.5847 143.0
53.6192 162.0
53.6537 123.0
53.6881 115.0
53.7226 112.0
53.7571 103.0
53.7915 106.0
53.826 100.0
53.8605 106.0
53.8949 92.0
53.9294 95.0
53.9639 87.0
53.9983 84.0
54.0328 78.0
54.0673 73.0
54.1017 101.0
54.1362 76.0
54.1707 78.0
54.2051 70.0
54.2396 81.0
54.2741 68.0
54.3085 70.0
54.343 70.0
54.3775 69.0
54.412 76.0
54.4464 65.0
54.4809 71.0
54.5154 65.0
54.5498 58.0
54.5843 83.0
54.6188 63.0
54.6532 59.0
54.6877 69.0
54.7222 74.0
54.7566 57.0
54.7911 58.0
54.8256 73.0
54.86 49.0
54.8945 70.0
54.929 66.0
54.9634 58.0
54.9979 57.0