Folder: DataAnalysis/data/W6906r/XRD_2ThetaOmega

Note: data/W6906r/XRD_2ThetaOmega/W6906r_peaks.TXT
No.	Label	Pos. [°2Th.]	FWHM Left [°2Th.]	Area [cts*°2Th.]	Backgr.[cts]	d-spacing [Å]	Height [cts]	Shape Left	Status	Integral Breadth [°2Th.]	FWHM Right [°2Th.]	Shape Right	Obs. Lorentz B [°2Th.]	Obs. Gauss B [°2Th.]	Instr. Lorentz B [°2Th.]	Instr. Gauss B [°2Th.]	Crystallite Size [Å]	Micro Strain [%]	Crystallite Size only [Å]	Micro Strain only [%]
1	Cr2O3 0 2 4	50,213(3)	0,75(1)	297,18	179,50	1,81545	254(2)	1,00(2)	Included	1,170331	 	 	1,164840	0,019765	0,074565	0,063170	89,408230	-0,055871	89,407470	1,015270
2	Al2O3 0 2 4	52,50445(1)	0,05425(3)	30528,14	204,71	1,74148	456162(227)	0,4252(7)	Included	0,066924	 	 	0,031079	0,045259	0,074847	0,063409	-2248,748000	-0,039291	31120,090000	0,002798

Note: README.md
# Methods
## RSM analysis

Check out [doc](documentation/RSM.md)

File: scan_2th-om_r2_Cr2O3_45-55deg_PIXscan_5min_C7.xy
45.0025 139.0
45.0369 90.0
45.0714 128.0
45.1059 130.0
45.1403 131.0
45.1748 123.0
45.2093 104.0
45.2437 105.0
45.2782 120.0
45.3127 120.0
45.3471 112.0
45.3816 118.0
45.4161 102.0
45.4505 127.0
45.485 98.0
45.5195 96.0
45.5539 126.0
45.5884 103.0
45.6229 105.0
45.6573 112.0
45.6918 115.0
45.7263 133.0
45.7607 115.0
45.7952 97.0
45.8297 115.0
45.8641 98.0
45.8986 103.0
45.9331 112.0
45.9675 121.0
46.002 119.0
46.0365 106.0
46.0709 106.0
46.1054 127.0
46.1399 110.0
46.1743 87.0
46.2088 100.0
46.2433 104.0
46.2777 111.0
46.3122 107.0
46.3467 89.0
46.3811 114.0
46.4156 112.0
46.4501 120.0
46.4845 115.0
46.519 109.0
46.5535 113.0
46.5879 110.0
46.6224 101.0
46.6569 118.0
46.6913 129.0
46.7258 132.0
46.7603 116.0
46.7947 134.0
46.8292 124.0
46.8637 132.0
46.8981 157.0
46.9326 129.0
46.9671 117.0
47.0015 159.0
47.036 228.0
47.0705 634.0
47.1049 1687.0
47.1394 1208.0
47.1739 460.0
47.2083 314.0
47.2428 219.0
47.2773 147.0
47.3118 155.0
47.3462 142.0
47.3807 108.0
47.4152 140.0
47.4496 133.0
47.4841 135.0
47.5186 115.0
47.553 125.0
47.5875 129.0
47.622 125.0
47.6564 111.0
47.6909 121.0
47.7254 118.0
47.7598 140.0
47.7943 119.0
47.8288 115.0
47.8632 135.0
47.8977 135.0
47.9322 110.0
47.9666 117.0
48.0011 147.0
48.0356 119.0
48.07 147.0
48.1045 116.0
48.139 143.0
48.1734 117.0
48.2079 125.0
48.2424 129.0
48.2768 122.0
48.3113 118.0
48.3458 107.0
48.3802 120.0
48.4147 124.0
48.4492 127.0
48.4836 135.0
48.5181 134.0
48.5526 126.0
48.587 145.0
48.6215 113.0
48.656 135.0
48.6904 127.0
48.7249 134.0
48.7594 127.0
48.7938 153.0
48.8283 153.0
48.8628 136.0
48.8972 133.0
48.9317 139.0
48.9662 132.0
49.0006 140.0
49.0351 120.0
49.0696 122.0
49.104 148.0
49.1385 127.0
49.173 155.0
49.2074 168.0
49.2419 147.0
49.2764 154.0
49.3108 149.0
49.3453 161.0
49.3798 148.0
49.4142 206.0
49.4487 174.0
49.4832 199.0
49.5176 221.0
49.5521 188.0
49.5866 220.0
49.621 193.0
49.6555 246.0
49.69 274.0
49.7244 270.0
49.7589 284.0
49.7934 322.0
49.8278 347.0
49.8623 364.0
49.8968 378.0
49.9312 414.0
49.9657 468.0
50.0002 495.0
50.0346 482.0
50.0691 500.0
50.1036 529.0
50.138 534.0
50.1725 591.0
50.207 572.0
50.2414 542.0
50.2759 578.0
50.3104 532.0
50.3448 520.0
50.3793 502.0
50.4138 459.0
50.4482 428.0
50.4827 409.0
50.5172 392.0
50.5516 384.0
50.5861 377.0
50.6206 334.0
50.655 333.0
50.6895 296.0
50.724 310.0
50.7584 229.0
50.7929 282.0
50.8274 274.0
50.8619 276.0
50.8963 295.0
50.9308 277.0
50.9653 312.0
50.9997 316.0
51.0342 279.0
51.0687 325.0
51.1031 313.0
51.1376 327.0
51.1721 345.0
51.2065 371.0
51.241 335.0
51.2755 352.0
51.3099 362.0
51.3444 398.0
51.3789 413.0
51.4133 425.0
51.4478 454.0
51.4823 464.0
51.5167 487.0
51.5512 480.0
51.5857 524.0
51.6201 530.0
51.6546 561.0
51.6891 600.0
51.7235 654.0
51.758 648.0
51.7925 662.0
51.8269 726.0
51.8614 735.0
51.8959 767.0
51.9303 842.0
51.9648 872.0
51.9993 959.0
52.0337 1046.0
52.0682 1127.0
52.1027 1338.0
52.1371 1475.0
52.1716 1878.0
52.2061 2713.0
52.2405 4214.0
52.275 5104.0
52.3095 4772.0
52.3439 5261.0
52.3784 7046.0
52.4129 13225.0
52.4473 38738.0
52.4818 320910.0
52.5163 407270.0
52.5507 75406.0
52.5852 32550.0
52.6197 146389.0
52.6541 206230.0
52.6886 47937.0
52.7231 11524.0
52.7575 6121.0
52.792 4291.0
52.8265 3253.0
52.8609 2562.0
52.8954 2168.0
52.9299 1824.0
52.9643 1580.0
52.9988 1266.0
53.0333 1173.0
53.0677 1034.0
53.1022 936.0
53.1367 845.0
53.1711 815.0
53.2056 736.0
53.2401 677.0
53.2745 585.0
53.309 592.0
53.3435 522.0
53.3779 526.0
53.4124 483.0
53.4469 435.0
53.4813 426.0
53.5158 398.0
53.5503 331.0
53.5847 358.0
53.6192 316.0
53.6537 288.0
53.6881 300.0
53.7226 266.0
53.7571 286.0
53.7915 224.0
53.826 203.0
53.8605 200.0
53.8949 202.0
53.9294 184.0
53.9639 192.0
53.9983 191.0
54.0328 187.0
54.0673 199.0
54.1017 191.0
54.1362 191.0
54.1707 186.0
54.2051 182.0
54.2396 213.0
54.2741 171.0
54.3085 152.0
54.343 160.0
54.3775 179.0
54.412 173.0
54.4464 170.0
54.4809 166.0
54.5154 156.0
54.5498 153.0
54.5843 142.0
54.6188 154.0
54.6532 164.0
54.6877 152.0
54.7222 152.0
54.7566 154.0
54.7911 127.0
54.8256 139.0
54.86 138.0
54.8945 145.0
54.929 135.0
54.9634 163.0
54.9979 168.0