Folder: DataAnalysis/data/W6906r/XRD_Omega

Note: data/W6906r/XRD_Omega/W6906r_omega_peaks.TXT
No.	Label	Pos. [記mega]	FWHM Left [記mega]	Area [cts*記mega]	Backgr.[cts]	d-spacing [魔	Height [cts]	Shape Left	Status	Integral Breadth [記mega]	FWHM Right [記mega]	Shape Right	Obs. Lorentz B [記mega]	Obs. Gauss B [記mega]	Instr. Lorentz B [記mega]	Instr. Gauss B [記mega]	Crystallite Size [魔	Micro Strain [%]	Crystallite Size only [魔	Micro Strain only [%]
1	Cr2O3 0 2 4	25,029(3)	1,12(1)	262,62	55,11	 	172(1)	0,68(2)	Included	1,523540	 	 	1,091949	0,715796	0,074595	0,063192	88,875700	1,401623	61,161780	2,906134

Note: README.md
# Methods
## RSM analysis

Check out [doc](documentation/RSM.md)

File: scan_omega_4deg_step_0.005deg0_C7.xy
23.09260 60.0
23.10760 60.0
23.12260 70.0
23.13760 51.0
23.15260 70.0
23.16760 64.0
23.18260 49.0
23.19760 65.0
23.21260 55.0
23.22760 70.0
23.24260 80.0
23.25760 71.0
23.27260 62.0
23.28760 75.0
23.30260 78.0
23.31760 74.0
23.33260 67.0
23.34760 79.0
23.36260 70.0
23.37760 72.0
23.39260 67.0
23.40760 80.0
23.42260 78.0
23.43760 86.0
23.45260 75.0
23.46760 59.0
23.48260 59.0
23.49760 58.0
23.51260 69.0
23.52760 89.0
23.54260 82.0
23.55760 76.0
23.57260 85.0
23.58760 80.0
23.60260 77.0
23.61760 89.0
23.63260 61.0
23.64760 91.0
23.66260 82.0
23.67760 61.0
23.69260 101.0
23.70760 91.0
23.72260 103.0
23.73760 94.0
23.75260 68.0
23.76760 81.0
23.78260 92.0
23.79760 94.0
23.81260 80.0
23.82760 80.0
23.84260 95.0
23.85760 99.0
23.87260 100.0
23.88760 91.0
23.90260 85.0
23.91760 110.0
23.93260 102.0
23.94760 113.0
23.96260 103.0
23.97760 107.0
23.99260 109.0
24.00760 103.0
24.02260 127.0
24.03760 111.0
24.05260 116.0
24.06760 125.0
24.08260 121.0
24.09760 113.0
24.11260 115.0
24.12760 118.0
24.14260 141.0
24.15760 137.0
24.17260 134.0
24.18760 133.0
24.20260 141.0
24.21760 155.0
24.23260 138.0
24.24760 155.0
24.26260 144.0
24.27760 138.0
24.29260 146.0
24.30760 166.0
24.32260 140.0
24.33760 168.0
24.35260 168.0
24.36760 164.0
24.38260 169.0
24.39760 183.0
24.41260 181.0
24.42760 191.0
24.44260 172.0
24.45760 185.0
24.47260 165.0
24.48760 196.0
24.50260 189.0
24.51760 220.0
24.53260 198.0
24.54760 205.0
24.56260 219.0
24.57760 210.0
24.59260 222.0
24.60760 218.0
24.62260 192.0
24.63760 226.0
24.65260 235.0
24.66760 193.0
24.68260 215.0
24.69760 226.0
24.71260 247.0
24.72760 244.0
24.74260 261.0
24.75760 233.0
24.77260 264.0
24.78760 268.0
24.80260 234.0
24.81760 258.0
24.83260 256.0
24.84760 267.0
24.86260 267.0
24.87760 275.0
24.89260 266.0
24.90760 266.0
24.92260 253.0
24.93760 281.0
24.95260 302.0
24.96760 316.0
24.98260 332.0
24.99760 344.0
25.01260 338.0
25.02760 326.0
25.04260 436.0
25.05760 382.0
25.07260 350.0
25.08760 381.0
25.10260 359.0
25.11760 378.0
25.13260 358.0
25.14760 411.0
25.16260 387.0
25.17760 390.0
25.19260 381.0
25.20760 293.0
25.22260 255.0
25.23760 282.0
25.25260 252.0
25.26760 255.0
25.28260 254.0
25.29760 228.0
25.31260 229.0
25.32760 264.0
25.34260 248.0
25.35760 243.0
25.37260 244.0
25.38760 232.0
25.40260 221.0
25.41760 236.0
25.43260 228.0
25.44760 202.0
25.46260 190.0
25.47760 193.0
25.49260 207.0
25.50760 218.0
25.52260 211.0
25.53760 180.0
25.55260 192.0
25.56760 206.0
25.58260 165.0
25.59760 181.0
25.61260 181.0
25.62760 199.0
25.64260 173.0
25.65760 187.0
25.67260 178.0
25.68760 166.0
25.70260 152.0
25.71760 155.0
25.73260 150.0
25.74760 162.0
25.76260 172.0
25.77760 154.0
25.79260 144.0
25.80760 163.0
25.82260 134.0
25.83760 120.0
25.85260 131.0
25.86760 135.0
25.88260 146.0
25.89760 114.0
25.91260 129.0
25.92760 107.0
25.94260 123.0
25.95760 118.0
25.97260 113.0
25.98760 124.0
26.00260 97.0
26.01760 115.0
26.03260 120.0
26.04760 124.0
26.06260 96.0
26.07760 89.0
26.09260 94.0
26.10760 102.0
26.12260 106.0
26.13760 92.0
26.15260 92.0
26.16760 102.0
26.18260 89.0
26.19760 97.0
26.21260 90.0
26.22760 91.0
26.24260 66.0
26.25760 75.0
26.27260 73.0
26.28760 78.0
26.30260 78.0
26.31760 75.0
26.33260 80.0
26.34760 88.0
26.36260 94.0
26.37760 74.0
26.39260 72.0
26.40760 71.0
26.42260 72.0
26.43760 69.0
26.45260 65.0
26.46760 75.0
26.48260 78.0
26.49760 73.0
26.51260 77.0
26.52760 74.0
26.54260 62.0
26.55760 49.0
26.57260 79.0
26.58760 73.0
26.60260 78.0
26.61760 66.0
26.63260 74.0
26.64760 60.0
26.66260 62.0
26.67760 58.0
26.69260 61.0
26.70760 64.0
26.72260 66.0
26.73760 66.0
26.75260 45.0
26.76760 73.0
26.78260 61.0
26.79760 43.0
26.81260 57.0
26.82760 62.0
26.84260 66.0
26.85760 71.0
26.87260 59.0
26.88760 58.0
26.90260 57.0
26.91760 58.0
26.93260 56.0
26.94760 65.0
26.96260 65.0
26.97760 55.0
26.99260 54.0
27.00760 53.0
27.02260 64.0
27.03760 75.0
27.05260 73.0