Folder: DataAnalysis/data/W6904c/XRD_2ThetaOmega

Note: data/W6904c/XRD_2ThetaOmega/W6904c_peaks.TXT
No.	Label	Pos. [°2Th.]	FWHM Left [°2Th.]	Area [cts*°2Th.]	Backgr.[cts]	d-spacing [Å]	Height [cts]	Shape Left	Status	Integral Breadth [°2Th.]	FWHM Right [°2Th.]	Shape Right	Obs. Lorentz B [°2Th.]	Obs. Gauss B [°2Th.]	Instr. Lorentz B [°2Th.]	Instr. Gauss B [°2Th.]	Crystallite Size [Å]	Micro Strain [%]	Crystallite Size only [Å]	Micro Strain only [%]
1	Cr2O3 0 0 6	39,0435(9)	0,358(4)	331,75	163,10	2,30515	657(5)	0,76(2)	Included	0,504652	 	 	0,397281	0,202631	0,073932	0,062633	289,635600	0,237162	212,921200	0,541314
2	Al2O3 0 0 6	41,62364(3)	0,05379(8)	4937,00	170,53	2,16803	77071(98)	0,329(2)	Included	0,064058	 	 	0,023403	0,048004	0,073977	0,062671	-1867,187000	-0,046251	29858,410000	0,003631

Note: README.md
# Methods
## RSM analysis

Check out [doc](documentation/RSM.md)

File: scan_2th-om_c_Cr2O3_35-45deg_PIXscan_4min_C5.xy
35.0021 158.0
35.0365 171.0
35.071 156.0
35.1055 170.0
35.1399 149.0
35.1744 139.0
35.2089 160.0
35.2433 188.0
35.2778 171.0
35.3123 134.0
35.3467 172.0
35.3812 140.0
35.4157 177.0
35.4501 161.0
35.4846 140.0
35.5191 168.0
35.5535 167.0
35.588 144.0
35.6225 131.0
35.6569 151.0
35.6914 175.0
35.7259 148.0
35.7603 136.0
35.7948 165.0
35.8293 162.0
35.8637 140.0
35.8982 184.0
35.9327 157.0
35.9671 150.0
36.0016 135.0
36.0361 154.0
36.0705 160.0
36.105 154.0
36.1395 135.0
36.1739 149.0
36.2084 141.0
36.2429 144.0
36.2773 182.0
36.3118 144.0
36.3463 161.0
36.3807 142.0
36.4152 156.0
36.4497 164.0
36.4841 171.0
36.5186 173.0
36.5531 148.0
36.5875 163.0
36.622 168.0
36.6565 169.0
36.6909 144.0
36.7254 138.0
36.7599 156.0
36.7943 152.0
36.8288 139.0
36.8633 156.0
36.8977 165.0
36.9322 128.0
36.9667 139.0
37.0011 177.0
37.0356 150.0
37.0701 164.0
37.1045 150.0
37.139 141.0
37.1735 156.0
37.2079 181.0
37.2424 179.0
37.2769 149.0
37.3114 158.0
37.3458 153.0
37.3803 161.0
37.4148 258.0
37.4492 416.0
37.4837 296.0
37.5182 154.0
37.5526 164.0
37.5871 170.0
37.6216 155.0
37.656 150.0
37.6905 176.0
37.725 146.0
37.7594 158.0
37.7939 170.0
37.8284 164.0
37.8628 166.0
37.8973 169.0
37.9318 191.0
37.9662 178.0
38.0007 171.0
38.0352 168.0
38.0696 181.0
38.1041 194.0
38.1386 183.0
38.173 159.0
38.2075 187.0
38.242 188.0
38.2764 226.0
38.3109 208.0
38.3454 201.0
38.3798 214.0
38.4143 228.0
38.4488 232.0
38.4832 210.0
38.5177 229.0
38.5522 304.0
38.5866 308.0
38.6211 332.0
38.6556 334.0
38.69 344.0
38.7245 352.0
38.759 341.0
38.7934 384.0
38.8279 431.0
38.8624 549.0
38.8968 651.0
38.9313 751.0
38.9658 874.0
39.0002 1032.0
39.0347 1046.0
39.0692 1077.0
39.1036 1062.0
39.1381 1017.0
39.1726 931.0
39.207 831.0
39.2415 677.0
39.276 641.0
39.3104 535.0
39.3449 479.0
39.3794 414.0
39.4138 377.0
39.4483 332.0
39.4828 293.0
39.5172 275.0
39.5517 219.0
39.5862 203.0
39.6206 223.0
39.6551 187.0
39.6896 186.0
39.724 215.0
39.7585 166.0
39.793 168.0
39.8274 173.0
39.8619 192.0
39.8964 149.0
39.9308 161.0
39.9653 166.0
39.9998 170.0
40.0342 182.0
40.0687 154.0
40.1032 172.0
40.1376 158.0
40.1721 152.0
40.2066 170.0
40.241 170.0
40.2755 172.0
40.31 150.0
40.3444 158.0
40.3789 162.0
40.4134 177.0
40.4478 169.0
40.4823 179.0
40.5168 188.0
40.5512 180.0
40.5857 188.0
40.6202 151.0
40.6546 186.0
40.6891 164.0
40.7236 205.0
40.758 202.0
40.7925 230.0
40.827 235.0
40.8615 221.0
40.8959 228.0
40.9304 205.0
40.9649 214.0
40.9993 209.0
41.0338 232.0
41.0683 218.0
41.1027 272.0
41.1372 284.0
41.1717 283.0
41.2061 325.0
41.2406 307.0
41.2751 357.0
41.3095 423.0
41.344 404.0
41.3785 571.0
41.4129 879.0
41.4474 1139.0
41.4819 1143.0
41.5163 1442.0
41.5508 3074.0
41.5853 19729.0
41.6197 70545.0
41.6542 36641.0
41.6887 10319.0
41.7231 35065.0
41.7576 25142.0
41.7921 2868.0
41.8265 1283.0
41.861 878.0
41.8955 669.0
41.9299 531.0
41.9644 446.0
41.9989 411.0
42.0333 367.0
42.0678 326.0
42.1023 284.0
42.1367 286.0
42.1712 266.0
42.2057 260.0
42.2401 209.0
42.2746 209.0
42.3091 201.0
42.3435 186.0
42.378 189.0
42.4125 197.0
42.4469 181.0
42.4814 175.0
42.5159 168.0
42.5503 162.0
42.5848 157.0
42.6193 164.0
42.6537 168.0
42.6882 150.0
42.7227 156.0
42.7571 158.0
42.7916 158.0
42.8261 167.0
42.8605 143.0
42.895 159.0
42.9295 168.0
42.9639 166.0
42.9984 143.0
43.0329 128.0
43.0673 153.0
43.1018 137.0
43.1363 175.0
43.1707 155.0
43.2052 164.0
43.2397 145.0
43.2741 167.0
43.3086 167.0
43.3431 172.0
43.3775 134.0
43.412 138.0
43.4465 150.0
43.4809 159.0
43.5154 160.0
43.5499 162.0
43.5843 138.0
43.6188 166.0
43.6533 160.0
43.6877 141.0
43.7222 178.0
43.7567 153.0
43.7911 141.0
43.8256 163.0
43.8601 176.0
43.8945 160.0
43.929 197.0
43.9635 178.0
43.9979 176.0
44.0324 177.0
44.0669 172.0
44.1013 202.0
44.1358 182.0
44.1703 236.0
44.2047 203.0
44.2392 237.0
44.2737 246.0
44.3081 262.0
44.3426 278.0
44.3771 316.0
44.4116 309.0
44.446 329.0
44.4805 299.0
44.515 300.0
44.5494 236.0
44.5839 236.0
44.6184 216.0
44.6528 180.0
44.6873 186.0
44.7218 183.0
44.7562 158.0
44.7907 153.0
44.8252 166.0
44.8596 169.0
44.8941 142.0
44.9286 158.0
44.963 143.0
44.9975 146.0