Folder: DataAnalysis/data/W6904c/XRD_Omega

Note: data/W6904c/XRD_Omega/W6904c_omega_peaks.TXT
No.	Label	Pos. [記mega]	FWHM Left [記mega]	Area [cts*記mega]	Backgr.[cts]	d-spacing [魔	Height [cts]	Shape Left	Status	Integral Breadth [記mega]	FWHM Right [記mega]	Shape Right	Obs. Lorentz B [記mega]	Obs. Gauss B [記mega]	Instr. Lorentz B [記mega]	Instr. Gauss B [記mega]	Crystallite Size [魔	Micro Strain [%]	Crystallite Size only [魔	Micro Strain only [%]
1	Cr2O3 0 0 6	19,3983(4)	0,198(2)	296,02	69,87	 	1100(7)	0,67(1)	Included	0,269186	 	 	0,189651	0,129457	0,075247	0,063743	782,744600	0,287649	457,201600	0,500018

Note: README.md
# Methods
## RSM analysis

Check out [doc](documentation/RSM.md)

File: scan_omega_4deg_step_0.005deg0_C5_3.xy
17.43020 93.0
17.44520 81.0
17.46020 73.0
17.47520 84.0
17.49020 90.0
17.50520 93.0
17.52020 81.0
17.53520 64.0
17.55020 74.0
17.56520 71.0
17.58020 74.0
17.59520 91.0
17.61020 83.0
17.62520 89.0
17.64020 66.0
17.65520 94.0
17.67020 76.0
17.68520 83.0
17.70020 77.0
17.71520 73.0
17.73020 84.0
17.74520 98.0
17.76020 83.0
17.77520 86.0
17.79020 91.0
17.80520 83.0
17.82020 74.0
17.83520 82.0
17.85020 103.0
17.86520 96.0
17.88020 76.0
17.89520 81.0
17.91020 79.0
17.92520 74.0
17.94020 88.0
17.95520 71.0
17.97020 80.0
17.98520 98.0
18.00020 89.0
18.01520 66.0
18.03020 82.0
18.04520 98.0
18.06020 72.0
18.07520 90.0
18.09020 84.0
18.10520 75.0
18.12020 81.0
18.13520 78.0
18.15020 72.0
18.16520 96.0
18.18020 81.0
18.19520 97.0
18.21020 76.0
18.22520 77.0
18.24020 84.0
18.25520 78.0
18.27020 80.0
18.28520 87.0
18.30020 79.0
18.31520 98.0
18.33020 80.0
18.34520 91.0
18.36020 95.0
18.37520 75.0
18.39020 107.0
18.40520 73.0
18.42020 73.0
18.43520 82.0
18.45020 84.0
18.46520 90.0
18.48020 75.0
18.49520 92.0
18.51020 100.0
18.52520 82.0
18.54020 78.0
18.55520 69.0
18.57020 100.0
18.58520 91.0
18.60020 95.0
18.61520 85.0
18.63020 84.0
18.64520 85.0
18.66020 105.0
18.67520 91.0
18.69020 99.0
18.70520 91.0
18.72020 84.0
18.73520 94.0
18.75020 99.0
18.76520 82.0
18.78020 107.0
18.79520 101.0
18.81020 103.0
18.82520 97.0
18.84020 96.0
18.85520 107.0
18.87020 93.0
18.88520 111.0
18.90020 110.0
18.91520 126.0
18.93020 107.0
18.94520 117.0
18.96020 119.0
18.97520 129.0
18.99020 103.0
19.00520 119.0
19.02020 117.0
19.03520 144.0
19.05020 146.0
19.06520 147.0
19.08020 146.0
19.09520 167.0
19.11020 177.0
19.12520 188.0
19.14020 200.0
19.15520 234.0
19.17020 215.0
19.18520 257.0
19.20020 278.0
19.21520 295.0
19.23020 337.0
19.24520 383.0
19.26020 434.0
19.27520 538.0
19.29020 768.0
19.30520 945.0
19.32020 1002.0
19.33520 1153.0
19.35020 1356.0
19.36520 1354.0
19.38020 1546.0
19.39520 1564.0
19.41020 1572.0
19.42520 1583.0
19.44020 1512.0
19.45520 1433.0
19.47020 1315.0
19.48520 1103.0
19.50020 1027.0
19.51520 951.0
19.53020 848.0
19.54520 688.0
19.56020 520.0
19.57520 404.0
19.59020 335.0
19.60520 321.0
19.62020 304.0
19.63520 309.0
19.65020 239.0
19.66520 228.0
19.68020 186.0
19.69520 196.0
19.71020 208.0
19.72520 147.0
19.74020 146.0
19.75520 149.0
19.77020 162.0
19.78520 142.0
19.80020 151.0
19.81520 119.0
19.83020 110.0
19.84520 143.0
19.86020 104.0
19.87520 118.0
19.89020 120.0
19.90520 101.0
19.92020 102.0
19.93520 95.0
19.95020 99.0
19.96520 103.0
19.98020 93.0
19.99520 77.0
20.01020 95.0
20.02520 86.0
20.04020 90.0
20.05520 83.0
20.07020 88.0
20.08520 90.0
20.10020 73.0
20.11520 82.0
20.13020 81.0
20.14520 87.0
20.16020 83.0
20.17520 73.0
20.19020 89.0
20.20520 70.0
20.22020 88.0
20.23520 83.0
20.25020 95.0
20.26520 80.0
20.28020 77.0
20.29520 71.0
20.31020 72.0
20.32520 74.0
20.34020 75.0
20.35520 80.0
20.37020 74.0
20.38520 88.0
20.40020 80.0
20.41520 89.0
20.43020 81.0
20.44520 77.0
20.46020 74.0
20.47520 79.0
20.49020 70.0
20.50520 84.0
20.52020 95.0
20.53520 60.0
20.55020 64.0
20.56520 59.0
20.58020 59.0
20.59520 67.0
20.61020 84.0
20.62520 67.0
20.64020 96.0
20.65520 83.0
20.67020 63.0
20.68520 64.0
20.70020 91.0
20.71520 91.0
20.73020 83.0
20.74520 72.0
20.76020 76.0
20.77520 66.0
20.79020 70.0
20.80520 83.0
20.82020 64.0
20.83520 58.0
20.85020 62.0
20.86520 60.0
20.88020 77.0
20.89520 68.0
20.91020 58.0
20.92520 73.0
20.94020 63.0
20.95520 80.0
20.97020 65.0
20.98520 63.0
21.00020 84.0
21.01520 76.0
21.03020 68.0
21.04520 85.0
21.06020 69.0
21.07520 71.0
21.09020 79.0
21.10520 63.0
21.12020 64.0
21.13520 80.0
21.15020 75.0
21.16520 74.0
21.18020 61.0
21.19520 62.0
21.21020 57.0
21.22520 74.0
21.24020 80.0
21.25520 77.0
21.27020 66.0
21.28520 85.0
21.30020 58.0
21.31520 68.0
21.33020 81.0
21.34520 65.0
21.36020 68.0
21.37520 85.0
21.39020 68.0