Folder: DataAnalysis/data/W6900r/XRD_2ThetaOmega

Note: data/W6900r/XRD_2ThetaOmega/W6900r_peaks.TXT
No.	Label	Pos. [°2Th.]	FWHM Left [°2Th.]	Area [cts*°2Th.]	Backgr.[cts]	d-spacing [Å]	Height [cts]	Shape Left	Status	Integral Breadth [°2Th.]	FWHM Right [°2Th.]	Shape Right	Obs. Lorentz B [°2Th.]	Obs. Gauss B [°2Th.]	Instr. Lorentz B [°2Th.]	Instr. Gauss B [°2Th.]	Crystallite Size [Å]	Micro Strain [%]	Crystallite Size only [Å]	Micro Strain only [%]
1	Cr2O3 0 2 4	49,758(4)	0,53(5)	189,98	154,16	1,83098	277(37)	0,5(3)	Included	0,685053	 	 	0,396841	0,402213	0,074516	0,063129	301,866900	0,373752	155,268900	0,589615
2	Al2O3 0 2 4	52,50087(1)	0,05499(3)	32272,03	608,81	1,74159	480951(230)	0,3959(7)	Included	0,067100	 	 	0,029153	0,046881	0,074846	0,063408	-2153,919000	-0,037775	31119,610000	0,002798

Note: README.md
# Methods
## RSM analysis

Check out [doc](documentation/RSM.md)

File: scan_2th-om_r2_Cr2O3_45-55deg_PIXscan_5min_C1.xy
45.0025 99.0
45.0369 119.0
45.0714 86.0
45.1059 124.0
45.1403 85.0
45.1748 103.0
45.2093 77.0
45.2437 117.0
45.2782 121.0
45.3127 108.0
45.3471 83.0
45.3816 102.0
45.4161 87.0
45.4505 115.0
45.485 97.0
45.5195 95.0
45.5539 87.0
45.5884 100.0
45.6229 87.0
45.6573 132.0
45.6918 97.0
45.7263 95.0
45.7607 94.0
45.7952 94.0
45.8297 95.0
45.8641 104.0
45.8986 103.0
45.9331 82.0
45.9675 102.0
46.002 117.0
46.0365 111.0
46.0709 107.0
46.1054 108.0
46.1399 109.0
46.1743 86.0
46.2088 116.0
46.2433 106.0
46.2777 95.0
46.3122 86.0
46.3467 108.0
46.3811 95.0
46.4156 107.0
46.4501 94.0
46.4845 95.0
46.519 103.0
46.5535 89.0
46.5879 96.0
46.6224 100.0
46.6569 120.0
46.6913 106.0
46.7258 129.0
46.7603 125.0
46.7947 121.0
46.8292 100.0
46.8637 122.0
46.8981 109.0
46.9326 113.0
46.9671 107.0
47.0015 156.0
47.036 214.0
47.0705 687.0
47.1049 1760.0
47.1394 1212.0
47.1739 437.0
47.2083 235.0
47.2428 148.0
47.2773 147.0
47.3118 138.0
47.3462 137.0
47.3807 126.0
47.4152 112.0
47.4496 140.0
47.4841 121.0
47.5186 107.0
47.553 113.0
47.5875 104.0
47.622 117.0
47.6564 121.0
47.6909 116.0
47.7254 130.0
47.7598 113.0
47.7943 120.0
47.8288 120.0
47.8632 139.0
47.8977 124.0
47.9322 107.0
47.9666 137.0
48.0011 132.0
48.0356 123.0
48.07 118.0
48.1045 108.0
48.139 127.0
48.1734 117.0
48.2079 116.0
48.2424 121.0
48.2768 122.0
48.3113 122.0
48.3458 114.0
48.3802 126.0
48.4147 117.0
48.4492 119.0
48.4836 109.0
48.5181 158.0
48.5526 120.0
48.587 129.0
48.6215 126.0
48.656 144.0
48.6904 120.0
48.7249 155.0
48.7594 129.0
48.7938 127.0
48.8283 133.0
48.8628 127.0
48.8972 132.0
48.9317 129.0
48.9662 164.0
49.0006 159.0
49.0351 153.0
49.0696 152.0
49.104 159.0
49.1385 168.0
49.173 196.0
49.2074 170.0
49.2419 187.0
49.2764 203.0
49.3108 215.0
49.3453 243.0
49.3798 231.0
49.4142 274.0
49.4487 305.0
49.4832 290.0
49.5176 331.0
49.5521 370.0
49.5866 416.0
49.621 449.0
49.6555 495.0
49.69 514.0
49.7244 589.0
49.7589 564.0
49.7934 574.0
49.8278 536.0
49.8623 530.0
49.8968 501.0
49.9312 505.0
49.9657 449.0
50.0002 442.0
50.0346 364.0
50.0691 373.0
50.1036 333.0
50.138 376.0
50.1725 306.0
50.207 300.0
50.2414 273.0
50.2759 243.0
50.3104 241.0
50.3448 212.0
50.3793 195.0
50.4138 240.0
50.4482 192.0
50.4827 182.0
50.5172 193.0
50.5516 194.0
50.5861 205.0
50.6206 218.0
50.655 189.0
50.6895 188.0
50.724 199.0
50.7584 188.0
50.7929 186.0
50.8274 226.0
50.8619 262.0
50.8963 225.0
50.9308 210.0
50.9653 267.0
50.9997 294.0
51.0342 273.0
51.0687 294.0
51.1031 331.0
51.1376 309.0
51.1721 316.0
51.2065 330.0
51.241 284.0
51.2755 366.0
51.3099 384.0
51.3444 401.0
51.3789 428.0
51.4133 446.0
51.4478 531.0
51.4823 482.0
51.5167 498.0
51.5512 476.0
51.5857 529.0
51.6201 568.0
51.6546 546.0
51.6891 594.0
51.7235 632.0
51.758 674.0
51.7925 678.0
51.8269 740.0
51.8614 749.0
51.8959 833.0
51.9303 850.0
51.9648 918.0
51.9993 1027.0
52.0337 1068.0
52.0682 1303.0
52.1027 1345.0
52.1371 1554.0
52.1716 1996.0
52.2061 2975.0
52.2405 4514.0
52.275 5282.0
52.3095 5152.0
52.3439 5695.0
52.3784 8012.0
52.4129 15309.0
52.4473 49334.0
52.4818 378302.0
52.5163 409124.0
52.5507 67051.0
52.5852 37244.0
52.6197 177124.0
52.6541 209283.0
52.6886 41938.0
52.7231 11513.0
52.7575 6507.0
52.792 4627.0
52.8265 3501.0
52.8609 2629.0
52.8954 2273.0
52.9299 1901.0
52.9643 1666.0
52.9988 1493.0
53.0333 1248.0
53.0677 1108.0
53.1022 1014.0
53.1367 903.0
53.1711 887.0
53.2056 789.0
53.2401 705.0
53.2745 681.0
53.309 599.0
53.3435 546.0
53.3779 512.0
53.4124 470.0
53.4469 467.0
53.4813 420.0
53.5158 398.0
53.5503 364.0
53.5847 354.0
53.6192 331.0
53.6537 297.0
53.6881 278.0
53.7226 287.0
53.7571 215.0
53.7915 214.0
53.826 201.0
53.8605 215.0
53.8949 192.0
53.9294 190.0
53.9639 208.0
53.9983 217.0
54.0328 166.0
54.0673 176.0
54.1017 180.0
54.1362 145.0
54.1707 174.0
54.2051 193.0
54.2396 129.0
54.2741 166.0
54.3085 179.0
54.343 172.0
54.3775 161.0
54.412 159.0
54.4464 145.0
54.4809 133.0
54.5154 143.0
54.5498 147.0
54.5843 163.0
54.6188 144.0
54.6532 127.0
54.6877 139.0
54.7222 124.0
54.7566 153.0
54.7911 119.0
54.8256 123.0
54.86 133.0
54.8945 118.0
54.929 142.0
54.9634 120.0
54.9979 142.0