Folder: DataAnalysis/data/W6900r/XRD_Omega

Note: data/W6900r/XRD_Omega/W6900r_omega_peaks.TXT
No.	Label	Pos. [記mega]	FWHM Left [記mega]	Area [cts*記mega]	Backgr.[cts]	d-spacing [魔	Height [cts]	Shape Left	Status	Integral Breadth [記mega]	FWHM Right [記mega]	Shape Right	Obs. Lorentz B [記mega]	Obs. Gauss B [記mega]	Instr. Lorentz B [記mega]	Instr. Gauss B [記mega]	Crystallite Size [魔	Micro Strain [%]	Crystallite Size only [魔	Micro Strain only [%]
1	Cr2O3 0 2 4	23,814(2)	1,392(6)	624,73	66,94	 	418(2)	22(4)	Included	1,495784	 	 	0,054291	1,465402	0,074719	0,063296	-4416,138000	3,029546	61,611000	3,029885

Note: README.md
# Methods
## RSM analysis

Check out [doc](documentation/RSM.md)

File: scan_omega_4deg_step_0.005deg0_C1.xy
21.87070 64.0
21.88570 65.0
21.90070 72.0
21.91570 70.0
21.93070 84.0
21.94570 68.0
21.96070 69.0
21.97570 77.0
21.99070 76.0
22.00570 66.0
22.02070 74.0
22.03570 93.0
22.05070 80.0
22.06570 91.0
22.08070 76.0
22.09570 84.0
22.11070 82.0
22.12570 96.0
22.14070 96.0
22.15570 74.0
22.17070 89.0
22.18570 84.0
22.20070 111.0
22.21570 85.0
22.23070 87.0
22.24570 100.0
22.26070 111.0
22.27570 90.0
22.29070 108.0
22.30570 108.0
22.32070 122.0
22.33570 109.0
22.35070 104.0
22.36570 98.0
22.38070 133.0
22.39570 97.0
22.41070 92.0
22.42570 113.0
22.44070 126.0
22.45570 113.0
22.47070 127.0
22.48570 146.0
22.50070 133.0
22.51570 119.0
22.53070 160.0
22.54570 144.0
22.56070 164.0
22.57570 135.0
22.59070 152.0
22.60570 162.0
22.62070 145.0
22.63570 149.0
22.65070 164.0
22.66570 161.0
22.68070 186.0
22.69570 168.0
22.71070 187.0
22.72570 179.0
22.74070 197.0
22.75570 180.0
22.77070 178.0
22.78570 184.0
22.80070 182.0
22.81570 208.0
22.83070 226.0
22.84570 232.0
22.86070 224.0
22.87570 260.0
22.89070 249.0
22.90570 263.0
22.92070 261.0
22.93570 283.0
22.95070 285.0
22.96570 297.0
22.98070 296.0
22.99570 274.0
23.01070 306.0
23.02570 309.0
23.04070 322.0
23.05570 311.0
23.07070 345.0
23.08570 313.0
23.10070 367.0
23.11570 340.0
23.13070 357.0
23.14570 375.0
23.16070 418.0
23.17570 387.0
23.19070 423.0
23.20570 421.0
23.22070 469.0
23.23570 430.0
23.25070 447.0
23.26570 455.0
23.28070 443.0
23.29570 456.0
23.31070 472.0
23.32570 486.0
23.34070 478.0
23.35570 489.0
23.37070 503.0
23.38570 512.0
23.40070 515.0
23.41570 525.0
23.43070 520.0
23.44570 582.0
23.46070 589.0
23.47570 543.0
23.49070 572.0
23.50570 532.0
23.52070 568.0
23.53570 584.0
23.55070 634.0
23.56570 643.0
23.58070 642.0
23.59570 683.0
23.61070 620.0
23.62570 652.0
23.64070 657.0
23.65570 738.0
23.67070 647.0
23.68570 641.0
23.70070 682.0
23.71570 661.0
23.73070 690.0
23.74570 653.0
23.76070 702.0
23.77570 660.0
23.79070 679.0
23.80570 768.0
23.82070 760.0
23.83570 715.0
23.85070 787.0
23.86570 669.0
23.88070 724.0
23.89570 691.0
23.91070 686.0
23.92570 721.0
23.94070 721.0
23.95570 673.0
23.97070 701.0
23.98570 675.0
24.00070 704.0
24.01570 666.0
24.03070 693.0
24.04570 668.0
24.06070 657.0
24.07570 685.0
24.09070 626.0
24.10570 673.0
24.12070 606.0
24.13570 657.0
24.15070 594.0
24.16570 608.0
24.18070 652.0
24.19570 586.0
24.21070 580.0
24.22570 579.0
24.24070 571.0
24.25570 552.0
24.27070 522.0
24.28570 469.0
24.30070 488.0
24.31570 497.0
24.33070 499.0
24.34570 492.0
24.36070 517.0
24.37570 500.0
24.39070 426.0
24.40570 462.0
24.42070 426.0
24.43570 402.0
24.45070 401.0
24.46570 421.0
24.48070 384.0
24.49570 403.0
24.51070 400.0
24.52570 359.0
24.54070 378.0
24.55570 344.0
24.57070 339.0
24.58570 321.0
24.60070 307.0
24.61570 323.0
24.63070 334.0
24.64570 314.0
24.66070 343.0
24.67570 323.0
24.69070 300.0
24.70570 310.0
24.72070 281.0
24.73570 288.0
24.75070 290.0
24.76570 251.0
24.78070 261.0
24.79570 268.0
24.81070 267.0
24.82570 244.0
24.84070 236.0
24.85570 243.0
24.87070 251.0
24.88570 228.0
24.90070 204.0
24.91570 198.0
24.93070 183.0
24.94570 185.0
24.96070 167.0
24.97570 161.0
24.99070 147.0
25.00570 148.0
25.02070 154.0
25.03570 140.0
25.05070 124.0
25.06570 140.0
25.08070 128.0
25.09570 147.0
25.11070 119.0
25.12570 129.0
25.14070 107.0
25.15570 102.0
25.17070 102.0
25.18570 118.0
25.20070 113.0
25.21570 116.0
25.23070 116.0
25.24570 89.0
25.26070 90.0
25.27570 101.0
25.29070 83.0
25.30570 77.0
25.32070 94.0
25.33570 85.0
25.35070 110.0
25.36570 94.0
25.38070 94.0
25.39570 72.0
25.41070 84.0
25.42570 92.0
25.44070 88.0
25.45570 94.0
25.47070 81.0
25.48570 81.0
25.50070 74.0
25.51570 68.0
25.53070 71.0
25.54570 79.0
25.56070 82.0
25.57570 67.0
25.59070 81.0
25.60570 83.0
25.62070 71.0
25.63570 60.0
25.65070 82.0
25.66570 55.0
25.68070 67.0
25.69570 81.0
25.71070 69.0
25.72570 56.0
25.74070 78.0
25.75570 70.0
25.77070 52.0
25.78570 65.0
25.80070 61.0
25.81570 65.0
25.83070 70.0