Folder: DataAnalysis/data/W6910m/XRD_Omega

Note: data/W6910m/XRD_Omega/W6910m_omega_peaks.TXT
No.	Pos. [記mega]	FWHM Left [記mega]	Area [cts*記mega]	Backgr.[cts]	d-spacing [魔	Height [cts]	Shape Left	Status	Integral Breadth [記mega]	FWHM Right [記mega]	Shape Right	Obs. Lorentz B [記mega]	Obs. Gauss B [記mega]	Instr. Lorentz B [記mega]	Instr. Gauss B [記mega]	Crystallite Size [魔	Micro Strain [%]	Crystallite Size only [魔	Micro Strain only [%]
1	32,9851(3)	0,6032(7)	3526,08	75,94	 	5024(7)	0,264(2)	Included	0,701860	 	 	0,208196	0,560601	0,074039	0,062723	686,195000	0,820991	142,636200	0,951148

Note: README.md
# Methods
## RSM analysis

Check out [doc](documentation/RSM.md)

File: w6910m_m-Cr2O3_scan_omega_4deg_step_0.005deg0_1.xy
31.06810 74.0
31.08310 86.0
31.09810 93.0
31.11310 101.0
31.12810 80.0
31.14310 95.0
31.15810 109.0
31.17310 83.0
31.18810 90.0
31.20310 85.0
31.21810 100.0
31.23310 80.0
31.24810 106.0
31.26310 80.0
31.27810 90.0
31.29310 99.0
31.30810 85.0
31.32310 98.0
31.33810 95.0
31.35310 91.0
31.36810 97.0
31.38310 92.0
31.39810 74.0
31.41310 109.0
31.42810 105.0
31.44310 87.0
31.45810 100.0
31.47310 101.0
31.48810 101.0
31.50310 112.0
31.51810 97.0
31.53310 103.0
31.54810 128.0
31.56310 120.0
31.57810 128.0
31.59310 108.0
31.60810 129.0
31.62310 122.0
31.63810 127.0
31.65310 109.0
31.66810 131.0
31.68310 119.0
31.69810 135.0
31.71310 120.0
31.72810 137.0
31.74310 144.0
31.75810 147.0
31.77310 139.0
31.78810 158.0
31.80310 173.0
31.81810 154.0
31.83310 176.0
31.84810 184.0
31.86310 184.0
31.87810 194.0
31.89310 186.0
31.90810 170.0
31.92310 205.0
31.93810 238.0
31.95310 197.0
31.96810 224.0
31.98310 227.0
31.99810 225.0
32.01310 236.0
32.02810 270.0
32.04310 284.0
32.05810 312.0
32.07310 296.0
32.08810 347.0
32.10310 338.0
32.11810 348.0
32.13310 393.0
32.14810 394.0
32.16310 444.0
32.17810 455.0
32.19310 437.0
32.20810 413.0
32.22310 481.0
32.23810 517.0
32.25310 559.0
32.26810 597.0
32.28310 631.0
32.29810 651.0
32.31310 747.0
32.32810 798.0
32.34310 742.0
32.35810 852.0
32.37310 898.0
32.38810 990.0
32.40310 993.0
32.41810 1076.0
32.43310 1191.0
32.44810 1297.0
32.46310 1413.0
32.47810 1456.0
32.49310 1440.0
32.50810 1619.0
32.52310 1686.0
32.53810 1757.0
32.55310 1890.0
32.56810 1972.0
32.58310 2027.0
32.59810 2163.0
32.61310 2324.0
32.62810 2540.0
32.64310 2719.0
32.65810 2747.0
32.67310 3081.0
32.68810 3084.0
32.70310 3474.0
32.71810 3641.0
32.73310 3828.0
32.74810 3938.0
32.76310 4277.0
32.77810 4429.0
32.79310 4689.0
32.80810 4941.0
32.82310 5267.0
32.83810 5446.0
32.85310 5682.0
32.86810 5910.0
32.88310 6173.0
32.89810 6342.0
32.91310 6599.0
32.92810 7019.0
32.94310 7024.0
32.95810 7253.0
32.97310 7317.0
32.98810 7842.0
33.00310 7668.0
33.01810 7964.0
33.03310 7946.0
33.04810 8009.0
33.06310 8126.0
33.07810 8090.0
33.09310 8033.0
33.10810 7785.0
33.12310 7694.0
33.13810 7460.0
33.15310 7304.0
33.16810 6970.0
33.18310 6670.0
33.19810 6355.0
33.21310 5986.0
33.22810 5686.0
33.24310 5281.0
33.25810 4994.0
33.27310 4632.0
33.28810 4289.0
33.30310 3897.0
33.31810 3611.0
33.33310 3338.0
33.34810 3068.0
33.36310 2866.0
33.37810 2555.0
33.39310 2413.0
33.40810 2230.0
33.42310 2033.0
33.43810 1807.0
33.45310 1754.0
33.46810 1560.0
33.48310 1521.0
33.49810 1385.0
33.51310 1269.0
33.52810 1205.0
33.54310 1067.0
33.55810 1027.0
33.57310 952.0
33.58810 893.0
33.60310 815.0
33.61810 767.0
33.63310 737.0
33.64810 689.0
33.66310 620.0
33.67810 604.0
33.69310 566.0
33.70810 474.0
33.72310 502.0
33.73810 467.0
33.75310 463.0
33.76810 418.0
33.78310 457.0
33.79810 420.0
33.81310 354.0
33.82810 344.0
33.84310 337.0
33.85810 306.0
33.87310 337.0
33.88810 281.0
33.90310 277.0
33.91810 224.0
33.93310 263.0
33.94810 221.0
33.96310 210.0
33.97810 222.0
33.99310 195.0
34.00810 198.0
34.02310 166.0
34.03810 210.0
34.05310 199.0
34.06810 183.0
34.08310 173.0
34.09810 157.0
34.11310 162.0
34.12810 157.0
34.14310 173.0
34.15810 153.0
34.17310 133.0
34.18810 140.0
34.20310 152.0
34.21810 132.0
34.23310 149.0
34.24810 150.0
34.26310 115.0
34.27810 118.0
34.29310 124.0
34.30810 98.0
34.32310 115.0
34.33810 113.0
34.35310 112.0
34.36810 116.0
34.38310 122.0
34.39810 108.0
34.41310 88.0
34.42810 101.0
34.44310 93.0
34.45810 107.0
34.47310 109.0
34.48810 89.0
34.50310 98.0
34.51810 88.0
34.53310 98.0
34.54810 84.0
34.56310 116.0
34.57810 64.0
34.59310 90.0
34.60810 74.0
34.62310 93.0
34.63810 77.0
34.65310 91.0
34.66810 82.0
34.68310 70.0
34.69810 67.0
34.71310 74.0
34.72810 72.0
34.74310 77.0
34.75810 62.0
34.77310 84.0
34.78810 76.0
34.80310 58.0
34.81810 86.0
34.83310 71.0
34.84810 81.0
34.86310 75.0
34.87810 79.0
34.89310 69.0
34.90810 70.0
34.92310 80.0
34.93810 69.0
34.95310 69.0
34.96810 69.0
34.98310 63.0
34.99810 54.0
35.01310 72.0
35.02810 78.0