Folder: DataAnalysis/data/W6910m/XRD_2ThetaOmega

Note: data/W6910m/XRD_2ThetaOmega/W6910m_peaks.TXT
No.	Label	Pos. [°2Th.]	FWHM Left [°2Th.]	Area [cts*°2Th.]	Backgr.[cts]	d-spacing [Å]	Height [cts]	Shape Left	Status	Integral Breadth [°2Th.]	FWHM Right [°2Th.]	Shape Right	Obs. Lorentz B [°2Th.]	Obs. Gauss B [°2Th.]	Instr. Lorentz B [°2Th.]	Instr. Gauss B [°2Th.]	Crystallite Size [Å]	Micro Strain [%]	Crystallite Size only [Å]	Micro Strain only [%]
1	Cr2O3 3 0 0	64,6065(4)	0,486(1)	1897,65	199,90	1,44143	3064(8)	0,510(5)	Included	0,619330	 	 	0,340347	0,378278	0,077357	0,065536	397,098200	0,257111	187,342200	0,384705
2	Al2O3 3 0 0	68,16587(1)	0,05966(4)	27465,16	232,31	1,37457	356253(198)	0,5470(8)	Included	0,077095	 	 	0,045169	0,044854	0,078472	0,066479	-3200,287000	-0,031642	33698,750000	0,002039

Note: README.md
# Methods
## RSM analysis

Check out [doc](documentation/RSM.md)

File: w6910m_scan_2th-om_m_Cr2O3_55-75deg_PIXscan_4min.xy
55.0019 106.0
55.0708 112.0
55.1397 125.0
55.2087 105.0
55.2776 105.0
55.3465 116.0
55.4155 120.0
55.4844 111.0
55.5533 142.0
55.6223 106.0
55.6912 112.0
55.7601 115.0
55.8291 96.0
55.898 118.0
55.9669 127.0
56.0359 111.0
56.1048 120.0
56.1737 116.0
56.2427 119.0
56.3116 117.0
56.3805 101.0
56.4495 106.0
56.5184 104.0
56.5873 120.0
56.6563 115.0
56.7252 120.0
56.7941 102.0
56.8631 115.0
56.932 134.0
57.0009 107.0
57.0699 136.0
57.1388 116.0
57.2077 128.0
57.2767 105.0
57.3456 122.0
57.4146 119.0
57.4835 122.0
57.5524 128.0
57.6214 120.0
57.6903 128.0
57.7592 134.0
57.8282 131.0
57.8971 147.0
57.966 131.0
58.035 123.0
58.1039 122.0
58.1728 142.0
58.2418 116.0
58.3107 116.0
58.3796 102.0
58.4486 126.0
58.5175 123.0
58.5864 126.0
58.6554 125.0
58.7243 125.0
58.7932 107.0
58.8622 114.0
58.9311 120.0
59 115.0
59.069 112.0
59.1379 117.0
59.2068 96.0
59.2758 130.0
59.3447 123.0
59.4136 112.0
59.4826 129.0
59.5515 107.0
59.6204 129.0
59.6894 146.0
59.7583 121.0
59.8272 129.0
59.8962 108.0
59.9651 107.0
60.034 120.0
60.103 123.0
60.1719 111.0
60.2408 134.0
60.3098 151.0
60.3787 117.0
60.4476 137.0
60.5166 139.0
60.5855 149.0
60.6544 151.0
60.7234 175.0
60.7923 490.0
60.8613 1226.0
60.9302 576.0
60.9991 202.0
61.0681 172.0
61.137 161.0
61.2059 152.0
61.2749 150.0
61.3438 134.0
61.4127 115.0
61.4817 121.0
61.5506 124.0
61.6195 133.0
61.6885 134.0
61.7574 113.0
61.8263 152.0
61.8953 136.0
61.9642 140.0
62.0331 129.0
62.1021 141.0
62.171 147.0
62.2399 147.0
62.3089 148.0
62.3778 135.0
62.4467 163.0
62.5157 147.0
62.5846 141.0
62.6535 132.0
62.7225 188.0
62.7914 135.0
62.8603 182.0
62.9293 166.0
62.9982 173.0
63.0671 203.0
63.1361 200.0
63.205 174.0
63.2739 190.0
63.3429 215.0
63.4118 182.0
63.4807 191.0
63.5497 242.0
63.6186 224.0
63.6875 281.0
63.7565 309.0
63.8254 318.0
63.8943 374.0
63.9633 426.0
64.0322 553.0
64.1011 662.0
64.1701 874.0
64.239 1128.0
64.3079 1522.0
64.3769 2055.0
64.4458 2696.0
64.5148 3493.0
64.5837 4289.0
64.6526 4596.0
64.7216 4367.0
64.7905 3726.0
64.8594 3016.0
64.9284 2338.0
64.9973 1612.0
65.0662 1260.0
65.1352 886.0
65.2041 751.0
65.273 551.0
65.342 499.0
65.4109 454.0
65.4798 408.0
65.5488 349.0
65.6177 292.0
65.6866 297.0
65.7556 282.0
65.8245 296.0
65.8934 277.0
65.9624 256.0
66.0313 232.0
66.1002 289.0
66.1692 268.0
66.2381 275.0
66.307 262.0
66.376 297.0
66.4449 335.0
66.5138 325.0
66.5828 351.0
66.6517 365.0
66.7206 355.0
66.7896 370.0
66.8585 430.0
66.9274 436.0
66.9964 431.0
67.0653 475.0
67.1342 508.0
67.2032 498.0
67.2721 610.0
67.341 620.0
67.41 659.0
67.4789 790.0
67.5478 873.0
67.6168 993.0
67.6857 1165.0
67.7546 1969.0
67.8236 3360.0
67.8925 3449.0
67.9615 4101.0
68.0304 7748.0
68.0993 31234.0
68.1683 341282.0
68.2372 31152.0
68.3061 35504.0
68.3751 145987.0
68.444 11736.0
68.5129 4480.0
68.5819 2825.0
68.6508 1981.0
68.7197 1518.0
68.7887 1204.0
68.8576 955.0
68.9265 800.0
68.9955 704.0
69.0644 602.0
69.1333 569.0
69.2023 500.0
69.2712 474.0
69.3401 427.0
69.4091 372.0
69.478 339.0
69.5469 324.0
69.6159 302.0
69.6848 255.0
69.7537 259.0
69.8227 206.0
69.8916 210.0
69.9605 202.0
70.0295 189.0
70.0984 195.0
70.1673 202.0
70.2363 170.0
70.3052 161.0
70.3741 143.0
70.4431 165.0
70.512 167.0
70.5809 181.0
70.6499 159.0
70.7188 161.0
70.7877 172.0
70.8567 148.0
70.9256 174.0
70.9945 144.0
71.0635 168.0
71.1324 139.0
71.2013 131.0
71.2703 140.0
71.3392 161.0
71.4082 144.0
71.4771 131.0
71.546 157.0
71.615 129.0
71.6839 118.0
71.7528 130.0
71.8218 129.0
71.8907 127.0
71.9596 135.0
72.0286 126.0
72.0975 125.0
72.1664 155.0
72.2354 132.0
72.3043 132.0
72.3732 132.0
72.4422 133.0
72.5111 139.0
72.58 123.0
72.649 139.0
72.7179 150.0
72.7868 140.0
72.8558 130.0
72.9247 125.0
72.9936 145.0
73.0626 140.0
73.1315 121.0
73.2004 146.0
73.2694 117.0
73.3383 122.0
73.4072 132.0
73.4762 134.0
73.5451 132.0
73.614 134.0
73.683 137.0
73.7519 132.0
73.8208 103.0
73.8898 116.0
73.9587 119.0
74.0276 116.0
74.0966 126.0
74.1655 110.0
74.2344 143.0
74.3034 106.0
74.3723 145.0
74.4412 112.0
74.5102 114.0
74.5791 134.0
74.648 133.0
74.717 153.0
74.7859 141.0
74.8548 133.0
74.9238 138.0
74.9927 134.0
74.9976 132.0