Folder: DataAnalysis/data/w6931c/XRD_2ThetaOmega

Note: data/w6931c/XRD_2ThetaOmega/W6931c_peaks.TXT
No.	Label	Pos. [°2Th.]	FWHM Left [°2Th.]	Area [cts*°2Th.]	Backgr.[cts]	d-spacing [Å]	Height [cts]	Shape Left	Status	Integral Breadth [°2Th.]	FWHM Right [°2Th.]	Shape Right	Obs. Lorentz B [°2Th.]	Obs. Gauss B [°2Th.]	Instr. Lorentz B [°2Th.]	Instr. Gauss B [°2Th.]	Crystallite Size [Å]	Micro Strain [%]	Crystallite Size only [Å]	Micro Strain only [%]
1	Cr2O3 0 0 6	38,9804(7)	0,605(2)	684,95	51,78	2,30873	944(4)	0,35(1)	Included	0,725817	 	 	0,281060	0,532355	0,073931	0,062632	452,063400	0,651748	140,124300	0,823816
2	Al2O3 0 0 6	41,59780(3)	0,03511(7)	2054,12	60,77	2,16931	46562(94)	0,474(3)	Included	0,044116	 	 	0,022667	0,028174	0,073976	0,062671	-1840,272000	-0,064306	29855,860000	0,003633

Note: README.md
# Methods
## RSM analysis

Check out [doc](documentation/RSM.md)

File: scan_2th-om_c_Cr2O3_35-45deg_PIXscan_4min.xy
35.0021 49.0
35.0365 43.0
35.071 48.0
35.1055 52.0
35.1399 60.0
35.1744 52.0
35.2089 61.0
35.2433 55.0
35.2778 58.0
35.3123 55.0
35.3467 59.0
35.3812 57.0
35.4157 42.0
35.4501 41.0
35.4846 49.0
35.5191 52.0
35.5535 53.0
35.588 51.0
35.6225 68.0
35.6569 49.0
35.6914 51.0
35.7259 51.0
35.7603 46.0
35.7948 61.0
35.8293 56.0
35.8637 40.0
35.8982 55.0
35.9327 45.0
35.9671 52.0
36.0016 52.0
36.0361 44.0
36.0705 44.0
36.105 45.0
36.1395 32.0
36.1739 50.0
36.2084 47.0
36.2429 56.0
36.2773 59.0
36.3118 58.0
36.3463 63.0
36.3807 53.0
36.4152 49.0
36.4497 49.0
36.4841 51.0
36.5186 34.0
36.5531 52.0
36.5875 54.0
36.622 47.0
36.6565 39.0
36.6909 43.0
36.7254 58.0
36.7599 46.0
36.7943 49.0
36.8288 52.0
36.8633 47.0
36.8977 47.0
36.9322 49.0
36.9667 47.0
37.0011 43.0
37.0356 52.0
37.0701 55.0
37.1045 46.0
37.139 58.0
37.1735 64.0
37.2079 53.0
37.2424 55.0
37.2769 48.0
37.3114 59.0
37.3458 57.0
37.3803 72.0
37.4148 155.0
37.4492 111.0
37.4837 75.0
37.5182 71.0
37.5526 52.0
37.5871 63.0
37.6216 63.0
37.656 57.0
37.6905 59.0
37.725 61.0
37.7594 59.0
37.7939 58.0
37.8284 63.0
37.8628 87.0
37.8973 74.0
37.9318 66.0
37.9662 68.0
38.0007 84.0
38.0352 80.0
38.0696 101.0
38.1041 76.0
38.1386 105.0
38.173 102.0
38.2075 105.0
38.242 111.0
38.2764 146.0
38.3109 142.0
38.3454 181.0
38.3798 192.0
38.4143 205.0
38.4488 260.0
38.4832 321.0
38.5177 344.0
38.5522 436.0
38.5866 527.0
38.6211 578.0
38.6556 626.0
38.69 609.0
38.7245 713.0
38.759 825.0
38.7934 911.0
38.8279 1005.0
38.8624 1146.0
38.8968 1221.0
38.9313 1344.0
38.9658 1448.0
39.0002 1482.0
39.0347 1558.0
39.0692 1601.0
39.1036 1434.0
39.1381 1308.0
39.1726 1243.0
39.207 1109.0
39.2415 1054.0
39.276 869.0
39.3104 782.0
39.3449 704.0
39.3794 538.0
39.4138 485.0
39.4483 419.0
39.4828 361.0
39.5172 301.0
39.5517 244.0
39.5862 225.0
39.6206 183.0
39.6551 182.0
39.6896 142.0
39.724 120.0
39.7585 114.0
39.793 123.0
39.8274 101.0
39.8619 114.0
39.8964 85.0
39.9308 96.0
39.9653 79.0
39.9998 74.0
40.0342 82.0
40.0687 69.0
40.1032 63.0
40.1376 82.0
40.1721 82.0
40.2066 50.0
40.241 73.0
40.2755 51.0
40.31 74.0
40.3444 65.0
40.3789 63.0
40.4134 58.0
40.4478 51.0
40.4823 69.0
40.5168 48.0
40.5512 58.0
40.5857 61.0
40.6202 83.0
40.6546 75.0
40.6891 78.0
40.7236 88.0
40.758 60.0
40.7925 71.0
40.827 70.0
40.8615 85.0
40.8959 95.0
40.9304 87.0
40.9649 87.0
40.9993 97.0
41.0338 80.0
41.0683 82.0
41.1027 90.0
41.1372 93.0
41.1717 99.0
41.2061 116.0
41.2406 120.0
41.2751 120.0
41.3095 130.0
41.344 158.0
41.3785 294.0
41.4129 508.0
41.4474 474.0
41.4819 511.0
41.5163 822.0
41.5508 2614.0
41.5853 35305.0
41.6197 16479.0
41.6542 2576.0
41.6887 12743.0
41.7231 12696.0
41.7576 1303.0
41.7921 545.0
41.8265 362.0
41.861 257.0
41.8955 176.0
41.9299 148.0
41.9644 158.0
41.9989 127.0
42.0333 107.0
42.0678 99.0
42.1023 108.0
42.1367 107.0
42.1712 93.0
42.2057 88.0
42.2401 62.0
42.2746 87.0
42.3091 71.0
42.3435 72.0
42.378 55.0
42.4125 63.0
42.4469 54.0
42.4814 57.0
42.5159 61.0
42.5503 48.0
42.5848 74.0
42.6193 54.0
42.6537 57.0
42.6882 55.0
42.7227 60.0
42.7571 59.0
42.7916 51.0
42.8261 54.0
42.8605 52.0
42.895 50.0
42.9295 53.0
42.9639 50.0
42.9984 46.0
43.0329 59.0
43.0673 55.0
43.1018 56.0
43.1363 66.0
43.1707 54.0
43.2052 51.0
43.2397 56.0
43.2741 51.0
43.3086 61.0
43.3431 44.0
43.3775 63.0
43.412 56.0
43.4465 71.0
43.4809 56.0
43.5154 62.0
43.5499 53.0
43.5843 52.0
43.6188 69.0
43.6533 51.0
43.6877 59.0
43.7222 48.0
43.7567 70.0
43.7911 69.0
43.8256 71.0
43.8601 63.0
43.8945 68.0
43.929 58.0
43.9635 55.0
43.9979 66.0
44.0324 71.0
44.0669 65.0
44.1013 79.0
44.1358 61.0
44.1703 90.0
44.2047 77.0
44.2392 95.0
44.2737 95.0
44.3081 104.0
44.3426 114.0
44.3771 111.0
44.4116 128.0
44.446 117.0
44.4805 92.0
44.515 122.0
44.5494 91.0
44.5839 103.0
44.6184 65.0
44.6528 62.0
44.6873 71.0
44.7218 56.0
44.7562 57.0
44.7907 68.0
44.8252 69.0
44.8596 58.0
44.8941 56.0
44.9286 47.0
44.963 49.0
44.9975 70.0