Folder: DataAnalysis/data/w6931c/XRD_Omega

Note: data/w6931c/XRD_Omega/W6931c_omega_peaks.TXT
No.	Label	Pos. [記mega]	FWHM Left [記mega]	Area [cts*記mega]	Backgr.[cts]	d-spacing [魔	Height [cts]	Shape Left	Status	Integral Breadth [記mega]	FWHM Right [記mega]	Shape Right	Obs. Lorentz B [記mega]	Obs. Gauss B [記mega]	Instr. Lorentz B [記mega]	Instr. Gauss B [記mega]	Crystallite Size [魔	Micro Strain [%]	Crystallite Size only [魔	Micro Strain only [%]
1	Cr2O3 0 0 6	19,387(1)	0,823(3)	570,11	31,03	 	589(2)	0,297(6)	Included	0,968239	 	 	0,320438	0,749618	0,075248	0,063744	365,219500	1,907919	98,345630	2,325938

Note: README.md
# Methods
## RSM analysis

Check out [doc](documentation/RSM.md)

File: film_c_scan_omega_4deg_step_0.005deg0.xy
17.41970 35.0
17.43470 35.0
17.44970 40.0
17.46470 32.0
17.47970 42.0
17.49470 43.0
17.50970 41.0
17.52470 38.0
17.53970 27.0
17.55470 44.0
17.56970 35.0
17.58470 33.0
17.59970 36.0
17.61470 29.0
17.62970 26.0
17.64470 33.0
17.65970 22.0
17.67470 30.0
17.68970 33.0
17.70470 47.0
17.71970 36.0
17.73470 43.0
17.74970 37.0
17.76470 36.0
17.77970 42.0
17.79470 47.0
17.80970 35.0
17.82470 40.0
17.83970 31.0
17.85470 39.0
17.86970 37.0
17.88470 38.0
17.89970 46.0
17.91470 41.0
17.92970 48.0
17.94470 52.0
17.95970 50.0
17.97470 42.0
17.98970 42.0
18.00470 48.0
18.01970 44.0
18.03470 35.0
18.04970 48.0
18.06470 37.0
18.07970 51.0
18.09470 53.0
18.10970 52.0
18.12470 52.0
18.13970 50.0
18.15470 50.0
18.16970 56.0
18.18470 48.0
18.19970 59.0
18.21470 53.0
18.22970 52.0
18.24470 55.0
18.25970 78.0
18.27470 72.0
18.28970 68.0
18.30470 73.0
18.31970 87.0
18.33470 80.0
18.34970 79.0
18.36470 83.0
18.37970 87.0
18.39470 85.0
18.40970 96.0
18.42470 101.0
18.43970 94.0
18.45470 102.0
18.46970 118.0
18.48470 105.0
18.49970 121.0
18.51470 113.0
18.52970 120.0
18.54470 118.0
18.55970 139.0
18.57470 127.0
18.58970 135.0
18.60470 143.0
18.61970 160.0
18.63470 136.0
18.64970 171.0
18.66470 134.0
18.67970 168.0
18.69470 203.0
18.70970 178.0
18.72470 190.0
18.73970 205.0
18.75470 244.0
18.76970 222.0
18.78470 238.0
18.79970 225.0
18.81470 246.0
18.82970 275.0
18.84470 266.0
18.85970 307.0
18.87470 306.0
18.88970 327.0
18.90470 318.0
18.91970 365.0
18.93470 337.0
18.94970 398.0
18.96470 399.0
18.97970 423.0
18.99470 427.0
19.00970 495.0
19.02470 528.0
19.03970 500.0
19.05470 520.0
19.06970 578.0
19.08470 539.0
19.09970 610.0
19.11470 642.0
19.12970 628.0
19.14470 701.0
19.15970 704.0
19.17470 775.0
19.18970 786.0
19.20470 773.0
19.21970 823.0
19.23470 879.0
19.24970 874.0
19.26470 894.0
19.27970 909.0
19.29470 931.0
19.30970 962.0
19.32470 1001.0
19.33970 983.0
19.35470 981.0
19.36970 1027.0
19.38470 984.0
19.39970 964.0
19.41470 1022.0
19.42970 985.0
19.44470 1020.0
19.45970 941.0
19.47470 922.0
19.48970 959.0
19.50470 937.0
19.51970 887.0
19.53470 860.0
19.54970 862.0
19.56470 793.0
19.57970 743.0
19.59470 741.0
19.60970 753.0
19.62470 678.0
19.63970 679.0
19.65470 650.0
19.66970 582.0
19.68470 631.0
19.69970 573.0
19.71470 586.0
19.72970 559.0
19.74470 516.0
19.75970 492.0
19.77470 479.0
19.78970 454.0
19.80470 467.0
19.81970 454.0
19.83470 407.0
19.84970 395.0
19.86470 400.0
19.87970 358.0
19.89470 363.0
19.90970 324.0
19.92470 322.0
19.93970 299.0
19.95470 315.0
19.96970 278.0
19.98470 247.0
19.99970 287.0
20.01470 231.0
20.02970 278.0
20.04470 220.0
20.05970 231.0
20.07470 226.0
20.08970 198.0
20.10470 178.0
20.11970 160.0
20.13470 179.0
20.14970 159.0
20.16470 169.0
20.17970 158.0
20.19470 139.0
20.20970 150.0
20.22470 136.0
20.23970 136.0
20.25470 114.0
20.26970 111.0
20.28470 90.0
20.29970 115.0
20.31470 99.0
20.32970 96.0
20.34470 105.0
20.35970 88.0
20.37470 95.0
20.38970 94.0
20.40470 74.0
20.41970 82.0
20.43470 102.0
20.44970 86.0
20.46470 69.0
20.47970 76.0
20.49470 70.0
20.50970 57.0
20.52470 69.0
20.53970 50.0
20.55470 61.0
20.56970 48.0
20.58470 61.0
20.59970 48.0
20.61470 70.0
20.62970 46.0
20.64470 50.0
20.65970 61.0
20.67470 41.0
20.68970 51.0
20.70470 50.0
20.71970 47.0
20.73470 39.0
20.74970 49.0
20.76470 34.0
20.77970 43.0
20.79470 41.0
20.80970 36.0
20.82470 35.0
20.83970 36.0
20.85470 41.0
20.86970 37.0
20.88470 38.0
20.89970 38.0
20.91470 33.0
20.92970 52.0
20.94470 25.0
20.95970 32.0
20.97470 37.0
20.98970 36.0
21.00470 36.0
21.01970 35.0
21.03470 39.0
21.04970 33.0
21.06470 31.0
21.07970 36.0
21.09470 36.0
21.10970 31.0
21.12470 32.0
21.13970 21.0
21.15470 27.0
21.16970 32.0
21.18470 26.0
21.19970 35.0
21.21470 22.0
21.22970 37.0
21.24470 26.0
21.25970 34.0
21.27470 24.0
21.28970 31.0
21.30470 35.0
21.31970 28.0
21.33470 31.0
21.34970 33.0
21.36470 23.0
21.37970 27.0