Folder: DataAnalysis/data/w6930r/XRD_Omega

Note: README.md
# Methods
## RSM analysis

Check out [doc](documentation/RSM.md)

File: film_r_scan_omega_4deg_step_0.005deg0_C3.xy
22.69830 25.0
22.71330 28.0
22.72830 30.0
22.74330 32.0
22.75830 25.0
22.77330 29.0
22.78830 31.0
22.80330 31.0
22.81830 38.0
22.83330 38.0
22.84830 41.0
22.86330 33.0
22.87830 34.0
22.89330 40.0
22.90830 39.0
22.92330 40.0
22.93830 35.0
22.95330 25.0
22.96830 24.0
22.98330 38.0
22.99830 31.0
23.01330 30.0
23.02830 25.0
23.04330 27.0
23.05830 29.0
23.07330 38.0
23.08830 19.0
23.10330 38.0
23.11830 27.0
23.13330 25.0
23.14830 33.0
23.16330 36.0
23.17830 24.0
23.19330 29.0
23.20830 27.0
23.22330 33.0
23.23830 27.0
23.25330 25.0
23.26830 35.0
23.28330 36.0
23.29830 27.0
23.31330 36.0
23.32830 23.0
23.34330 36.0
23.35830 30.0
23.37330 44.0
23.38830 46.0
23.40330 29.0
23.41830 27.0
23.43330 30.0
23.44830 33.0
23.46330 37.0
23.47830 31.0
23.49330 44.0
23.50830 31.0
23.52330 42.0
23.53830 26.0
23.55330 34.0
23.56830 30.0
23.58330 40.0
23.59830 31.0
23.61330 36.0
23.62830 22.0
23.64330 25.0
23.65830 38.0
23.67330 22.0
23.68830 23.0
23.70330 30.0
23.71830 27.0
23.73330 31.0
23.74830 33.0
23.76330 33.0
23.77830 24.0
23.79330 38.0
23.80830 35.0
23.82330 30.0
23.83830 33.0
23.85330 22.0
23.86830 26.0
23.88330 37.0
23.89830 44.0
23.91330 45.0
23.92830 31.0
23.94330 28.0
23.95830 32.0
23.97330 28.0
23.98830 30.0
24.00330 23.0
24.01830 31.0
24.03330 31.0
24.04830 36.0
24.06330 27.0
24.07830 32.0
24.09330 34.0
24.10830 37.0
24.12330 33.0
24.13830 39.0
24.15330 30.0
24.16830 34.0
24.18330 33.0
24.19830 35.0
24.21330 27.0
24.22830 41.0
24.24330 33.0
24.25830 32.0
24.27330 37.0
24.28830 34.0
24.30330 26.0
24.31830 42.0
24.33330 40.0
24.34830 29.0
24.36330 35.0
24.37830 32.0
24.39330 34.0
24.40830 34.0
24.42330 43.0
24.43830 33.0
24.45330 35.0
24.46830 33.0
24.48330 34.0
24.49830 31.0
24.51330 28.0
24.52830 44.0
24.54330 46.0
24.55830 45.0
24.57330 53.0
24.58830 50.0
24.60330 57.0
24.61830 64.0
24.63330 64.0
24.64830 100.0
24.66330 109.0
24.67830 123.0
24.69330 123.0
24.70830 78.0
24.72330 104.0
24.73830 78.0
24.75330 75.0
24.76830 75.0
24.78330 78.0
24.79830 88.0
24.81330 55.0
24.82830 51.0
24.84330 46.0
24.85830 36.0
24.87330 31.0
24.88830 42.0
24.90330 31.0
24.91830 38.0
24.93330 36.0
24.94830 31.0
24.96330 19.0
24.97830 39.0
24.99330 30.0
25.00830 35.0
25.02330 36.0
25.03830 33.0
25.05330 32.0
25.06830 40.0
25.08330 31.0
25.09830 32.0
25.11330 34.0
25.12830 20.0
25.14330 25.0
25.15830 23.0
25.17330 36.0
25.18830 29.0
25.20330 28.0
25.21830 33.0
25.23330 29.0
25.24830 39.0
25.26330 28.0
25.27830 38.0
25.29330 27.0
25.30830 43.0
25.32330 35.0
25.33830 34.0
25.35330 38.0
25.36830 39.0
25.38330 25.0
25.39830 39.0
25.41330 32.0
25.42830 34.0
25.44330 32.0
25.45830 37.0
25.47330 23.0
25.48830 28.0
25.50330 34.0
25.51830 32.0
25.53330 21.0
25.54830 34.0
25.56330 27.0
25.57830 32.0
25.59330 24.0
25.60830 31.0
25.62330 28.0
25.63830 29.0
25.65330 31.0
25.66830 19.0
25.68330 24.0
25.69830 30.0
25.71330 35.0
25.72830 36.0
25.74330 29.0
25.75830 24.0
25.77330 29.0
25.78830 28.0
25.80330 27.0
25.81830 36.0
25.83330 28.0
25.84830 33.0
25.86330 32.0
25.87830 24.0
25.89330 28.0
25.90830 39.0
25.92330 34.0
25.93830 27.0
25.95330 33.0
25.96830 34.0
25.98330 39.0
25.99830 27.0
26.01330 27.0
26.02830 29.0
26.04330 33.0
26.05830 29.0
26.07330 31.0
26.08830 28.0
26.10330 30.0
26.11830 32.0
26.13330 23.0
26.14830 28.0
26.16330 27.0
26.17830 27.0
26.19330 26.0
26.20830 37.0
26.22330 26.0
26.23830 24.0
26.25330 19.0
26.26830 28.0
26.28330 30.0
26.29830 23.0
26.31330 45.0
26.32830 29.0
26.34330 38.0
26.35830 24.0
26.37330 33.0
26.38830 33.0
26.40330 29.0
26.41830 26.0
26.43330 34.0
26.44830 46.0
26.46330 25.0
26.47830 28.0
26.49330 24.0
26.50830 35.0
26.52330 28.0
26.53830 28.0
26.55330 25.0
26.56830 23.0
26.58330 35.0
26.59830 23.0
26.61330 25.0
26.62830 36.0
26.64330 31.0
26.65830 27.0