Folder: DataAnalysis/data/w6930r/XRD_2ThetaOmega

Note: data/w6930r/XRD_2ThetaOmega/W6930r_peaks.TXT
No.	Label	Pos. [°2Th.]	FWHM Left [°2Th.]	Area [cts*°2Th.]	Backgr.[cts]	d-spacing [Å]	Height [cts]	Shape Left	Status	Integral Breadth [°2Th.]	FWHM Right [°2Th.]	Shape Right	Obs. Lorentz B [°2Th.]	Obs. Gauss B [°2Th.]	Instr. Lorentz B [°2Th.]	Instr. Gauss B [°2Th.]	Crystallite Size [Å]	Micro Strain [%]	Crystallite Size only [Å]	Micro Strain only [%]
1	Cr2O3 0 2 4	50,161(5)	0,09(1)	3,07	71,15	1,81722	31(3)	0(1)	Included	0,100566	 	 	0,032070	0,078728	0,074560	0,063166	-2293,696000	0,043811	2073,695000	0,043816
2	Al2O3 0 2 4	52,50199(3)	0,04283(6)	12389,43	559,55	1,74156	228877(248)	0,490(1)	Included	0,054131	 	 	0,028646	0,033925	0,074846	0,063409	-2130,297000	-0,047396	31119,760000	0,002798

Note: README.md
# Methods
## RSM analysis

Check out [doc](documentation/RSM.md)

File: scan_2th-om_r2_Cr2O3_45-55deg_PIXscan_5min_C3.xy
45.0025 52.0
45.0369 70.0
45.0714 68.0
45.1059 61.0
45.1403 49.0
45.1748 52.0
45.2093 47.0
45.2437 53.0
45.2782 67.0
45.3127 48.0
45.3471 49.0
45.3816 54.0
45.4161 41.0
45.4505 52.0
45.485 49.0
45.5195 53.0
45.5539 47.0
45.5884 52.0
45.6229 53.0
45.6573 41.0
45.6918 57.0
45.7263 58.0
45.7607 50.0
45.7952 68.0
45.8297 49.0
45.8641 39.0
45.8986 43.0
45.9331 55.0
45.9675 59.0
46.002 50.0
46.0365 40.0
46.0709 68.0
46.1054 49.0
46.1399 57.0
46.1743 50.0
46.2088 60.0
46.2433 59.0
46.2777 49.0
46.3122 67.0
46.3467 62.0
46.3811 54.0
46.4156 45.0
46.4501 61.0
46.4845 39.0
46.519 61.0
46.5535 46.0
46.5879 47.0
46.6224 41.0
46.6569 52.0
46.6913 63.0
46.7258 63.0
46.7603 56.0
46.7947 57.0
46.8292 51.0
46.8637 67.0
46.8981 63.0
46.9326 73.0
46.9671 52.0
47.0015 87.0
47.036 95.0
47.0705 282.0
47.1049 900.0
47.1394 448.0
47.1739 170.0
47.2083 113.0
47.2428 88.0
47.2773 76.0
47.3118 77.0
47.3462 69.0
47.3807 70.0
47.4152 65.0
47.4496 55.0
47.4841 51.0
47.5186 49.0
47.553 84.0
47.5875 76.0
47.622 53.0
47.6564 66.0
47.6909 64.0
47.7254 61.0
47.7598 59.0
47.7943 44.0
47.8288 55.0
47.8632 66.0
47.8977 55.0
47.9322 66.0
47.9666 68.0
48.0011 61.0
48.0356 64.0
48.07 71.0
48.1045 53.0
48.139 73.0
48.1734 64.0
48.2079 52.0
48.2424 56.0
48.2768 55.0
48.3113 65.0
48.3458 66.0
48.3802 56.0
48.4147 49.0
48.4492 69.0
48.4836 53.0
48.5181 48.0
48.5526 62.0
48.587 42.0
48.6215 53.0
48.656 70.0
48.6904 59.0
48.7249 64.0
48.7594 64.0
48.7938 58.0
48.8283 70.0
48.8628 50.0
48.8972 72.0
48.9317 54.0
48.9662 56.0
49.0006 51.0
49.0351 67.0
49.0696 60.0
49.104 61.0
49.1385 52.0
49.173 52.0
49.2074 78.0
49.2419 70.0
49.2764 69.0
49.3108 65.0
49.3453 54.0
49.3798 52.0
49.4142 57.0
49.4487 65.0
49.4832 70.0
49.5176 58.0
49.5521 58.0
49.5866 70.0
49.621 51.0
49.6555 60.0
49.69 53.0
49.7244 65.0
49.7589 72.0
49.7934 62.0
49.8278 55.0
49.8623 64.0
49.8968 80.0
49.9312 54.0
49.9657 73.0
50.0002 84.0
50.0346 74.0
50.0691 78.0
50.1036 81.0
50.138 95.0
50.1725 110.0
50.207 91.0
50.2414 93.0
50.2759 90.0
50.3104 76.0
50.3448 76.0
50.3793 82.0
50.4138 89.0
50.4482 79.0
50.4827 71.0
50.5172 92.0
50.5516 73.0
50.5861 91.0
50.6206 96.0
50.655 87.0
50.6895 98.0
50.724 88.0
50.7584 85.0
50.7929 89.0
50.8274 108.0
50.8619 89.0
50.8963 97.0
50.9308 101.0
50.9653 104.0
50.9997 119.0
51.0342 125.0
51.0687 133.0
51.1031 116.0
51.1376 138.0
51.1721 124.0
51.2065 134.0
51.241 119.0
51.2755 163.0
51.3099 138.0
51.3444 185.0
51.3789 158.0
51.4133 167.0
51.4478 182.0
51.4823 177.0
51.5167 184.0
51.5512 199.0
51.5857 193.0
51.6201 199.0
51.6546 267.0
51.6891 305.0
51.7235 284.0
51.758 279.0
51.7925 311.0
51.8269 320.0
51.8614 326.0
51.8959 405.0
51.9303 368.0
51.9648 415.0
51.9993 460.0
52.0337 408.0
52.0682 472.0
52.1027 606.0
52.1371 695.0
52.1716 791.0
52.2061 1171.0
52.2405 1859.0
52.275 2294.0
52.3095 2191.0
52.3439 2196.0
52.3784 3094.0
52.4129 5622.0
52.4473 15066.0
52.4818 126839.0
52.5163 183115.0
52.5507 22555.0
52.5852 12392.0
52.6197 54602.0
52.6541 102743.0
52.6886 14318.0
52.7231 4558.0
52.7575 2667.0
52.792 1884.0
52.8265 1426.0
52.8609 1131.0
52.8954 963.0
52.9299 835.0
52.9643 696.0
52.9988 580.0
53.0333 492.0
53.0677 516.0
53.1022 404.0
53.1367 372.0
53.1711 331.0
53.2056 310.0
53.2401 280.0
53.2745 299.0
53.309 262.0
53.3435 192.0
53.3779 207.0
53.4124 181.0
53.4469 177.0
53.4813 159.0
53.5158 169.0
53.5503 145.0
53.5847 167.0
53.6192 140.0
53.6537 118.0
53.6881 102.0
53.7226 113.0
53.7571 96.0
53.7915 96.0
53.826 110.0
53.8605 112.0
53.8949 104.0
53.9294 93.0
53.9639 103.0
53.9983 80.0
54.0328 80.0
54.0673 83.0
54.1017 88.0
54.1362 73.0
54.1707 86.0
54.2051 88.0
54.2396 72.0
54.2741 78.0
54.3085 84.0
54.343 77.0
54.3775 70.0
54.412 81.0
54.4464 75.0
54.4809 88.0
54.5154 79.0
54.5498 77.0
54.5843 73.0
54.6188 76.0
54.6532 82.0
54.6877 94.0
54.7222 97.0
54.7566 93.0
54.7911 76.0
54.8256 77.0
54.86 89.0
54.8945 79.0
54.929 76.0
54.9634 68.0
54.9979 62.0