Folder: DataAnalysis/data/W6905m/XRD_Omega

Note: data/W6905m/XRD_Omega/W6905m_omega_peaks.TXT
No.	Label	Pos. [記mega]	FWHM Left [記mega]	Area [cts*記mega]	Backgr.[cts]	d-spacing [魔	Height [cts]	Shape Left	Status	Integral Breadth [記mega]	FWHM Right [記mega]	Shape Right	Obs. Lorentz B [記mega]	Obs. Gauss B [記mega]	Instr. Lorentz B [記mega]	Instr. Gauss B [記mega]	Crystallite Size [魔	Micro Strain [%]	Crystallite Size only [魔	Micro Strain only [%]
1	Cr2O3 3 0 0	32,8236(7)	0,740(2)	1232,00	68,04	 	1392(3)	0,341(4)	Included	0,885078	 	 	0,333899	0,655607	0,074046	0,062728	354,119900	0,966763	111,152400	1,226400

Note: README.md
# Methods
## RSM analysis

Check out [doc](documentation/RSM.md)

File: scan_omega_4deg_step_0.005deg0_C6_2.xy
30.92890 69.0
30.94390 85.0
30.95890 94.0
30.97390 84.0
30.98890 75.0
31.00390 81.0
31.01890 70.0
31.03390 104.0
31.04890 89.0
31.06390 70.0
31.07890 96.0
31.09390 70.0
31.10890 82.0
31.12390 108.0
31.13890 92.0
31.15390 92.0
31.16890 74.0
31.18390 89.0
31.19890 97.0
31.21390 80.0
31.22890 98.0
31.24390 91.0
31.25890 87.0
31.27390 91.0
31.28890 86.0
31.30390 88.0
31.31890 102.0
31.33390 92.0
31.34890 98.0
31.36390 118.0
31.37890 83.0
31.39390 102.0
31.40890 113.0
31.42390 106.0
31.43890 99.0
31.45390 102.0
31.46890 96.0
31.48390 107.0
31.49890 108.0
31.51390 119.0
31.52890 117.0
31.54390 109.0
31.55890 123.0
31.57390 123.0
31.58890 111.0
31.60390 117.0
31.61890 130.0
31.63390 128.0
31.64890 126.0
31.66390 123.0
31.67890 131.0
31.69390 117.0
31.70890 123.0
31.72390 145.0
31.73890 145.0
31.75390 135.0
31.76890 132.0
31.78390 185.0
31.79890 159.0
31.81390 183.0
31.82890 154.0
31.84390 151.0
31.85890 150.0
31.87390 194.0
31.88890 207.0
31.90390 225.0
31.91890 194.0
31.93390 206.0
31.94890 216.0
31.96390 217.0
31.97890 221.0
31.99390 217.0
32.00890 265.0
32.02390 271.0
32.03890 281.0
32.05390 281.0
32.06890 314.0
32.08390 297.0
32.09890 314.0
32.11390 341.0
32.12890 359.0
32.14390 380.0
32.15890 413.0
32.17390 405.0
32.18890 460.0
32.20390 469.0
32.21890 484.0
32.23390 530.0
32.24890 557.0
32.26390 557.0
32.27890 581.0
32.29390 622.0
32.30890 585.0
32.32390 657.0
32.33890 645.0
32.35390 757.0
32.36890 814.0
32.38390 770.0
32.39890 832.0
32.41390 853.0
32.42890 964.0
32.44390 952.0
32.45890 993.0
32.47390 993.0
32.48890 1065.0
32.50390 1070.0
32.51890 1069.0
32.53390 1209.0
32.54890 1302.0
32.56390 1268.0
32.57890 1336.0
32.59390 1391.0
32.60890 1445.0
32.62390 1473.0
32.63890 1567.0
32.65390 1609.0
32.66890 1698.0
32.68390 1704.0
32.69890 1817.0
32.71390 1774.0
32.72890 1805.0
32.74390 1906.0
32.75890 1917.0
32.77390 1993.0
32.78890 2026.0
32.80390 2147.0
32.81890 2129.0
32.83390 2169.0
32.84890 2185.0
32.86390 2240.0
32.87890 2331.0
32.89390 2280.0
32.90890 2285.0
32.92390 2266.0
32.93890 2136.0
32.95390 2169.0
32.96890 2255.0
32.98390 2170.0
32.99890 2101.0
33.01390 2030.0
33.02890 2097.0
33.04390 1930.0
33.05890 1833.0
33.07390 1845.0
33.08890 1760.0
33.10390 1704.0
33.11890 1547.0
33.13390 1470.0
33.14890 1362.0
33.16390 1322.0
33.17890 1317.0
33.19390 1203.0
33.20890 1084.0
33.22390 1085.0
33.23890 1073.0
33.25390 950.0
33.26890 874.0
33.28390 842.0
33.29890 778.0
33.31390 706.0
33.32890 705.0
33.34390 716.0
33.35890 635.0
33.37390 552.0
33.38890 553.0
33.40390 490.0
33.41890 502.0
33.43390 450.0
33.44890 508.0
33.46390 403.0
33.47890 424.0
33.49390 393.0
33.50890 368.0
33.52390 350.0
33.53890 322.0
33.55390 299.0
33.56890 288.0
33.58390 267.0
33.59890 294.0
33.61390 267.0
33.62890 250.0
33.64390 229.0
33.65890 239.0
33.67390 200.0
33.68890 223.0
33.70390 195.0
33.71890 200.0
33.73390 173.0
33.74890 182.0
33.76390 202.0
33.77890 175.0
33.79390 171.0
33.80890 148.0
33.82390 158.0
33.83890 129.0
33.85390 151.0
33.86890 134.0
33.88390 129.0
33.89890 152.0
33.91390 133.0
33.92890 147.0
33.94390 133.0
33.95890 107.0
33.97390 124.0
33.98890 96.0
34.00390 112.0
34.01890 125.0
34.03390 106.0
34.04890 87.0
34.06390 110.0
34.07890 99.0
34.09390 111.0
34.10890 111.0
34.12390 106.0
34.13890 91.0
34.15390 95.0
34.16890 94.0
34.18390 91.0
34.19890 102.0
34.21390 93.0
34.22890 92.0
34.24390 63.0
34.25890 88.0
34.27390 83.0
34.28890 98.0
34.30390 84.0
34.31890 84.0
34.33390 86.0
34.34890 90.0
34.36390 96.0
34.37890 75.0
34.39390 77.0
34.40890 70.0
34.42390 78.0
34.43890 73.0
34.45390 87.0
34.46890 73.0
34.48390 74.0
34.49890 83.0
34.51390 64.0
34.52890 74.0
34.54390 80.0
34.55890 77.0
34.57390 60.0
34.58890 75.0
34.60390 92.0
34.61890 92.0
34.63390 55.0
34.64890 74.0
34.66390 82.0
34.67890 56.0
34.69390 85.0
34.70890 78.0
34.72390 70.0
34.73890 65.0
34.75390 69.0
34.76890 68.0
34.78390 71.0
34.79890 86.0
34.81390 62.0
34.82890 67.0
34.84390 58.0
34.85890 86.0
34.87390 71.0
34.88890 67.0