Folder: DataAnalysis/data/W6905m/XRD_2ThetaOmega

Note: data/W6905m/XRD_2ThetaOmega/W6905m_peaks.TXT
No.	Label	Pos. [°2Th.]	FWHM Left [°2Th.]	Area [cts*°2Th.]	Backgr.[cts]	d-spacing [Å]	Height [cts]	Shape Left	Status	Integral Breadth [°2Th.]	FWHM Right [°2Th.]	Shape Right	Obs. Lorentz B [°2Th.]	Obs. Gauss B [°2Th.]	Instr. Lorentz B [°2Th.]	Instr. Gauss B [°2Th.]	Crystallite Size [Å]	Micro Strain [%]	Crystallite Size only [Å]	Micro Strain only [%]
1	Cr2O3 3 0 0	64,4191(7)	0,503(2)	717,22	214,13	1,44517	1191(5)	0,34(1)	Included	0,602173	 	 	0,228548	0,445049	0,077304	0,065490	689,778400	0,304897	192,700900	0,374977
2	Al2O3 3 0 0	68,16718(1)	0,06001(3)	29182,96	252,67	1,37455	378611(202)	0,5314(7)	Included	0,077079	 	 	0,043983	0,045790	0,078472	0,066480	-3090,190000	-0,031079	33699,010000	0,002039

Note: README.md
# Methods
## RSM analysis

Check out [doc](documentation/RSM.md)

File: scan_2th-om_m_Cr2O3_55-75deg_PIXscan_4min_C6.xy
55.0019 109.0
55.0708 132.0
55.1397 113.0
55.2087 104.0
55.2776 113.0
55.3465 113.0
55.4155 108.0
55.4844 105.0
55.5533 121.0
55.6223 120.0
55.6912 107.0
55.7601 106.0
55.8291 109.0
55.898 119.0
55.9669 100.0
56.0359 101.0
56.1048 113.0
56.1737 117.0
56.2427 85.0
56.3116 112.0
56.3805 108.0
56.4495 108.0
56.5184 100.0
56.5873 111.0
56.6563 111.0
56.7252 111.0
56.7941 115.0
56.8631 118.0
56.932 116.0
57.0009 110.0
57.0699 106.0
57.1388 118.0
57.2077 115.0
57.2767 118.0
57.3456 124.0
57.4146 121.0
57.4835 119.0
57.5524 135.0
57.6214 123.0
57.6903 122.0
57.7592 125.0
57.8282 129.0
57.8971 109.0
57.966 122.0
58.035 115.0
58.1039 136.0
58.1728 112.0
58.2418 123.0
58.3107 131.0
58.3796 113.0
58.4486 112.0
58.5175 111.0
58.5864 139.0
58.6554 120.0
58.7243 105.0
58.7932 125.0
58.8622 117.0
58.9311 113.0
59 92.0
59.069 106.0
59.1379 123.0
59.2068 106.0
59.2758 96.0
59.3447 109.0
59.4136 108.0
59.4826 117.0
59.5515 107.0
59.6204 118.0
59.6894 122.0
59.7583 107.0
59.8272 127.0
59.8962 97.0
59.9651 125.0
60.034 107.0
60.103 126.0
60.1719 115.0
60.2408 125.0
60.3098 139.0
60.3787 139.0
60.4476 145.0
60.5166 141.0
60.5855 130.0
60.6544 151.0
60.7234 178.0
60.7923 524.0
60.8613 1255.0
60.9302 532.0
60.9991 197.0
61.0681 161.0
61.137 166.0
61.2059 152.0
61.2749 150.0
61.3438 151.0
61.4127 144.0
61.4817 150.0
61.5506 142.0
61.6195 123.0
61.6885 143.0
61.7574 139.0
61.8263 139.0
61.8953 142.0
61.9642 128.0
62.0331 103.0
62.1021 145.0
62.171 152.0
62.2399 139.0
62.3089 132.0
62.3778 133.0
62.4467 144.0
62.5157 131.0
62.5846 151.0
62.6535 130.0
62.7225 156.0
62.7914 146.0
62.8603 156.0
62.9293 165.0
62.9982 163.0
63.0671 177.0
63.1361 172.0
63.205 169.0
63.2739 222.0
63.3429 167.0
63.4118 219.0
63.4807 201.0
63.5497 229.0
63.6186 221.0
63.6875 294.0
63.7565 295.0
63.8254 350.0
63.8943 365.0
63.9633 440.0
64.0322 546.0
64.1011 660.0
64.1701 823.0
64.239 1111.0
64.3079 1382.0
64.3769 1815.0
64.4458 1968.0
64.5148 1869.0
64.5837 1669.0
64.6526 1410.0
64.7216 1071.0
64.7905 822.0
64.8594 686.0
64.9284 570.0
64.9973 423.0
65.0662 414.0
65.1352 328.0
65.2041 314.0
65.273 285.0
65.342 242.0
65.4109 220.0
65.4798 269.0
65.5488 230.0
65.6177 209.0
65.6866 193.0
65.7556 216.0
65.8245 241.0
65.8934 225.0
65.9624 263.0
66.0313 230.0
66.1002 260.0
66.1692 260.0
66.2381 285.0
66.307 274.0
66.376 296.0
66.4449 292.0
66.5138 327.0
66.5828 334.0
66.6517 372.0
66.7206 367.0
66.7896 392.0
66.8585 416.0
66.9274 446.0
66.9964 518.0
67.0653 466.0
67.1342 518.0
67.2032 576.0
67.2721 629.0
67.341 615.0
67.41 741.0
67.4789 780.0
67.5478 881.0
67.6168 943.0
67.6857 1307.0
67.7546 2073.0
67.8236 3549.0
67.8925 3652.0
67.9615 4212.0
68.0304 7553.0
68.0993 31571.0
68.1683 365987.0
68.2372 33937.0
68.3061 36298.0
68.3751 159542.0
68.444 12864.0
68.5129 4670.0
68.5819 2877.0
68.6508 1997.0
68.7197 1581.0
68.7887 1273.0
68.8576 1023.0
68.9265 891.0
68.9955 735.0
69.0644 625.0
69.1333 609.0
69.2023 549.0
69.2712 482.0
69.3401 462.0
69.4091 415.0
69.478 325.0
69.5469 331.0
69.6159 317.0
69.6848 279.0
69.7537 273.0
69.8227 237.0
69.8916 230.0
69.9605 232.0
70.0295 209.0
70.0984 192.0
70.1673 223.0
70.2363 211.0
70.3052 204.0
70.3741 189.0
70.4431 173.0
70.512 211.0
70.5809 184.0
70.6499 163.0
70.7188 168.0
70.7877 151.0
70.8567 172.0
70.9256 150.0
70.9945 159.0
71.0635 143.0
71.1324 163.0
71.2013 152.0
71.2703 154.0
71.3392 172.0
71.4082 134.0
71.4771 148.0
71.546 141.0
71.615 140.0
71.6839 143.0
71.7528 133.0
71.8218 150.0
71.8907 168.0
71.9596 154.0
72.0286 155.0
72.0975 143.0
72.1664 155.0
72.2354 159.0
72.3043 153.0
72.3732 130.0
72.4422 155.0
72.5111 146.0
72.58 137.0
72.649 149.0
72.7179 140.0
72.7868 134.0
72.8558 145.0
72.9247 131.0
72.9936 146.0
73.0626 131.0
73.1315 114.0
73.2004 128.0
73.2694 123.0
73.3383 131.0
73.4072 131.0
73.4762 161.0
73.5451 147.0
73.614 125.0
73.683 138.0
73.7519 131.0
73.8208 125.0
73.8898 125.0
73.9587 119.0
74.0276 132.0
74.0966 161.0
74.1655 135.0
74.2344 123.0
74.3034 131.0
74.3723 126.0
74.4412 129.0
74.5102 145.0
74.5791 133.0
74.648 140.0
74.717 153.0
74.7859 127.0
74.8548 129.0
74.9238 120.0
74.9927 154.0
74.9976 148.0