Folder: DataAnalysis/data/W6908c/XRD_Omega

Note: data/W6908c/XRD_Omega/W6908c_omega_peaks.TXT
No.	Label	Pos. [記mega]	FWHM Left [記mega]	Area [cts*記mega]	Backgr.[cts]	d-spacing [魔	Height [cts]	Shape Left	Status	Integral Breadth [記mega]	FWHM Right [記mega]	Shape Right	Obs. Lorentz B [記mega]	Obs. Gauss B [記mega]	Instr. Lorentz B [記mega]	Instr. Gauss B [記mega]	Crystallite Size [魔	Micro Strain [%]	Crystallite Size only [魔	Micro Strain only [%]
1	Cr2O3 0 0 6	19,453(1)	0,212(3)	53,90	60,70	 	216(3)	0,30(4)	Included	0,249997	 	 	0,084937	0,191968	0,075239	0,063736	9234,908000	0,460945	478,237200	0,476694

Note: README.md
# Methods
## RSM analysis

Check out [doc](documentation/RSM.md)

File: scan_omega_4deg_step_0.005deg0_C9_3.xy
17.48640 60.0
17.50140 60.0
17.51640 48.0
17.53140 54.0
17.54640 68.0
17.56140 64.0
17.57640 67.0
17.59140 59.0
17.60640 54.0
17.62140 63.0
17.63640 63.0
17.65140 63.0
17.66640 78.0
17.68140 48.0
17.69640 67.0
17.71140 68.0
17.72640 60.0
17.74140 56.0
17.75640 58.0
17.77140 55.0
17.78640 74.0
17.80140 45.0
17.81640 76.0
17.83140 61.0
17.84640 53.0
17.86140 68.0
17.87640 59.0
17.89140 70.0
17.90640 71.0
17.92140 60.0
17.93640 68.0
17.95140 71.0
17.96640 60.0
17.98140 63.0
17.99640 65.0
18.01140 75.0
18.02640 70.0
18.04140 66.0
18.05640 69.0
18.07140 63.0
18.08640 73.0
18.10140 62.0
18.11640 53.0
18.13140 76.0
18.14640 55.0
18.16140 53.0
18.17640 59.0
18.19140 68.0
18.20640 65.0
18.22140 57.0
18.23640 53.0
18.25140 56.0
18.26640 64.0
18.28140 53.0
18.29640 72.0
18.31140 63.0
18.32640 63.0
18.34140 56.0
18.35640 68.0
18.37140 77.0
18.38640 61.0
18.40140 54.0
18.41640 51.0
18.43140 53.0
18.44640 66.0
18.46140 60.0
18.47640 68.0
18.49140 65.0
18.50640 64.0
18.52140 58.0
18.53640 67.0
18.55140 58.0
18.56640 68.0
18.58140 52.0
18.59640 67.0
18.61140 57.0
18.62640 67.0
18.64140 59.0
18.65640 64.0
18.67140 60.0
18.68640 63.0
18.70140 74.0
18.71640 62.0
18.73140 66.0
18.74640 56.0
18.76140 65.0
18.77640 64.0
18.79140 56.0
18.80640 79.0
18.82140 76.0
18.83640 66.0
18.85140 58.0
18.86640 58.0
18.88140 58.0
18.89640 67.0
18.91140 66.0
18.92640 63.0
18.94140 55.0
18.95640 75.0
18.97140 64.0
18.98640 73.0
19.00140 71.0
19.01640 69.0
19.03140 80.0
19.04640 70.0
19.06140 74.0
19.07640 85.0
19.09140 62.0
19.10640 76.0
19.12140 89.0
19.13640 67.0
19.15140 90.0
19.16640 77.0
19.18140 88.0
19.19640 79.0
19.21140 87.0
19.22640 82.0
19.24140 97.0
19.25640 106.0
19.27140 95.0
19.28640 71.0
19.30140 102.0
19.31640 122.0
19.33140 181.0
19.34640 263.0
19.36140 318.0
19.37640 290.0
19.39140 297.0
19.40640 320.0
19.42140 341.0
19.43640 304.0
19.45140 340.0
19.46640 356.0
19.48140 342.0
19.49640 334.0
19.51140 369.0
19.52640 321.0
19.54140 302.0
19.55640 299.0
19.57140 334.0
19.58640 278.0
19.60140 210.0
19.61640 140.0
19.63140 87.0
19.64640 115.0
19.66140 94.0
19.67640 112.0
19.69140 99.0
19.70640 92.0
19.72140 90.0
19.73640 90.0
19.75140 74.0
19.76640 72.0
19.78140 54.0
19.79640 79.0
19.81140 67.0
19.82640 76.0
19.84140 79.0
19.85640 66.0
19.87140 69.0
19.88640 61.0
19.90140 67.0
19.91640 76.0
19.93140 73.0
19.94640 58.0
19.96140 67.0
19.97640 55.0
19.99140 62.0
20.00640 57.0
20.02140 61.0
20.03640 61.0
20.05140 52.0
20.06640 75.0
20.08140 63.0
20.09640 68.0
20.11140 76.0
20.12640 58.0
20.14140 55.0
20.15640 62.0
20.17140 50.0
20.18640 61.0
20.20140 57.0
20.21640 61.0
20.23140 53.0
20.24640 57.0
20.26140 63.0
20.27640 56.0
20.29140 63.0
20.30640 53.0
20.32140 45.0
20.33640 62.0
20.35140 53.0
20.36640 65.0
20.38140 53.0
20.39640 61.0
20.41140 54.0
20.42640 48.0
20.44140 48.0
20.45640 55.0
20.47140 62.0
20.48640 49.0
20.50140 47.0
20.51640 58.0
20.53140 57.0
20.54640 55.0
20.56140 62.0
20.57640 58.0
20.59140 71.0
20.60640 56.0
20.62140 54.0
20.63640 61.0
20.65140 56.0
20.66640 50.0
20.68140 62.0
20.69640 50.0
20.71140 62.0
20.72640 50.0
20.74140 55.0
20.75640 56.0
20.77140 64.0
20.78640 61.0
20.80140 62.0
20.81640 53.0
20.83140 55.0
20.84640 46.0
20.86140 47.0
20.87640 63.0
20.89140 49.0
20.90640 57.0
20.92140 44.0
20.93640 55.0
20.95140 60.0
20.96640 50.0
20.98140 51.0
20.99640 56.0
21.01140 51.0
21.02640 47.0
21.04140 48.0
21.05640 56.0
21.07140 40.0
21.08640 45.0
21.10140 41.0
21.11640 49.0
21.13140 56.0
21.14640 68.0
21.16140 43.0
21.17640 59.0
21.19140 52.0
21.20640 36.0
21.22140 51.0
21.23640 49.0
21.25140 46.0
21.26640 61.0
21.28140 59.0
21.29640 59.0
21.31140 58.0
21.32640 50.0
21.34140 41.0
21.35640 46.0
21.37140 57.0
21.38640 65.0
21.40140 52.0
21.41640 56.0
21.43140 59.0
21.44640 53.0