Folder: DataAnalysis/data/W6908c/XRD_2ThetaOmega

Note: data/W6908c/XRD_2ThetaOmega/W6908c_peaks.TXT
No.	Label	Pos. [°2Th.]	FWHM Left [°2Th.]	Area [cts*°2Th.]	Backgr.[cts]	d-spacing [Å]	Height [cts]	Shape Left	Status	Integral Breadth [°2Th.]	FWHM Right [°2Th.]	Shape Right	Obs. Lorentz B [°2Th.]	Obs. Gauss B [°2Th.]	Instr. Lorentz B [°2Th.]	Instr. Gauss B [°2Th.]	Crystallite Size [Å]	Micro Strain [%]	Crystallite Size only [Å]	Micro Strain only [%]
1	Cr2O3 0 0 6	39,145(4)	0,66(1)	63,97	133,03	2,29943	91(2)	0,0(2)	Included	0,706635	 	 	0,001728	0,706635	0,073933	0,062633	-1297,470000	0,863801	133,084800	0,863897
2	Al2O3 0 0 6	41,59948(3)	0,05198(6)	4189,42	143,62	2,16923	67602(87)	0,332(2)	Included	0,061972	 	 	0,022845	0,046293	0,073977	0,062671	-1846,684000	-0,048525	29856,020000	0,003633

Note: README.md
# Methods
## RSM analysis

Check out [doc](documentation/RSM.md)

File: scan_2th-om_c_Cr2O3_35-45deg_PIXscan_4min_C9.xy
35.0021 110.0
35.0365 85.0
35.071 122.0
35.1055 121.0
35.1399 106.0
35.1744 109.0
35.2089 118.0
35.2433 109.0
35.2778 105.0
35.3123 119.0
35.3467 86.0
35.3812 119.0
35.4157 103.0
35.4501 118.0
35.4846 116.0
35.5191 105.0
35.5535 114.0
35.588 107.0
35.6225 102.0
35.6569 103.0
35.6914 118.0
35.7259 107.0
35.7603 109.0
35.7948 114.0
35.8293 104.0
35.8637 105.0
35.8982 111.0
35.9327 139.0
35.9671 111.0
36.0016 125.0
36.0361 126.0
36.0705 112.0
36.105 101.0
36.1395 108.0
36.1739 128.0
36.2084 118.0
36.2429 108.0
36.2773 106.0
36.3118 113.0
36.3463 91.0
36.3807 124.0
36.4152 92.0
36.4497 121.0
36.4841 109.0
36.5186 102.0
36.5531 136.0
36.5875 112.0
36.622 104.0
36.6565 105.0
36.6909 111.0
36.7254 101.0
36.7599 123.0
36.7943 113.0
36.8288 123.0
36.8633 107.0
36.8977 127.0
36.9322 90.0
36.9667 130.0
37.0011 107.0
37.0356 109.0
37.0701 100.0
37.1045 106.0
37.139 118.0
37.1735 106.0
37.2079 88.0
37.2424 113.0
37.2769 106.0
37.3114 124.0
37.3458 118.0
37.3803 156.0
37.4148 336.0
37.4492 217.0
37.4837 129.0
37.5182 111.0
37.5526 120.0
37.5871 127.0
37.6216 116.0
37.656 120.0
37.6905 102.0
37.725 130.0
37.7594 108.0
37.7939 122.0
37.8284 145.0
37.8628 131.0
37.8973 124.0
37.9318 122.0
37.9662 122.0
38.0007 134.0
38.0352 121.0
38.0696 125.0
38.1041 111.0
38.1386 128.0
38.173 137.0
38.2075 132.0
38.242 135.0
38.2764 117.0
38.3109 112.0
38.3454 127.0
38.3798 123.0
38.4143 107.0
38.4488 125.0
38.4832 144.0
38.5177 130.0
38.5522 132.0
38.5866 130.0
38.6211 141.0
38.6556 132.0
38.69 178.0
38.7245 181.0
38.759 170.0
38.7934 210.0
38.8279 196.0
38.8624 182.0
38.8968 227.0
38.9313 258.0
38.9658 231.0
39.0002 229.0
39.0347 213.0
39.0692 284.0
39.1036 262.0
39.1381 261.0
39.1726 265.0
39.207 293.0
39.2415 264.0
39.276 221.0
39.3104 278.0
39.3449 266.0
39.3794 202.0
39.4138 214.0
39.4483 199.0
39.4828 205.0
39.5172 212.0
39.5517 185.0
39.5862 188.0
39.6206 156.0
39.6551 164.0
39.6896 152.0
39.724 149.0
39.7585 158.0
39.793 163.0
39.8274 157.0
39.8619 149.0
39.8964 141.0
39.9308 127.0
39.9653 127.0
39.9998 135.0
40.0342 143.0
40.0687 126.0
40.1032 129.0
40.1376 147.0
40.1721 131.0
40.2066 130.0
40.241 135.0
40.2755 124.0
40.31 146.0
40.3444 154.0
40.3789 127.0
40.4134 117.0
40.4478 127.0
40.4823 151.0
40.5168 148.0
40.5512 131.0
40.5857 124.0
40.6202 141.0
40.6546 149.0
40.6891 172.0
40.7236 167.0
40.758 156.0
40.7925 160.0
40.827 149.0
40.8615 157.0
40.8959 178.0
40.9304 168.0
40.9649 164.0
40.9993 169.0
41.0338 193.0
41.0683 227.0
41.1027 224.0
41.1372 261.0
41.1717 209.0
41.2061 281.0
41.2406 257.0
41.2751 315.0
41.3095 364.0
41.344 398.0
41.3785 629.0
41.4129 896.0
41.4474 996.0
41.4819 1027.0
41.5163 1949.0
41.5508 7084.0
41.5853 57132.0
41.6197 52454.0
41.6542 7426.0
41.6887 26540.0
41.7231 28206.0
41.7576 3889.0
41.7921 1279.0
41.8265 779.0
41.861 573.0
41.8955 442.0
41.9299 397.0
41.9644 334.0
41.9989 287.0
42.0333 282.0
42.0678 273.0
42.1023 194.0
42.1367 213.0
42.1712 194.0
42.2057 180.0
42.2401 177.0
42.2746 162.0
42.3091 154.0
42.3435 152.0
42.378 150.0
42.4125 156.0
42.4469 160.0
42.4814 156.0
42.5159 124.0
42.5503 142.0
42.5848 138.0
42.6193 127.0
42.6537 136.0
42.6882 119.0
42.7227 133.0
42.7571 115.0
42.7916 138.0
42.8261 129.0
42.8605 143.0
42.895 132.0
42.9295 129.0
42.9639 124.0
42.9984 134.0
43.0329 118.0
43.0673 130.0
43.1018 124.0
43.1363 122.0
43.1707 122.0
43.2052 116.0
43.2397 114.0
43.2741 130.0
43.3086 126.0
43.3431 120.0
43.3775 119.0
43.412 134.0
43.4465 120.0
43.4809 120.0
43.5154 123.0
43.5499 131.0
43.5843 137.0
43.6188 148.0
43.6533 123.0
43.6877 132.0
43.7222 123.0
43.7567 141.0
43.7911 129.0
43.8256 133.0
43.8601 136.0
43.8945 128.0
43.929 133.0
43.9635 129.0
43.9979 164.0
44.0324 150.0
44.0669 139.0
44.1013 162.0
44.1358 162.0
44.1703 200.0
44.2047 187.0
44.2392 199.0
44.2737 198.0
44.3081 226.0
44.3426 270.0
44.3771 282.0
44.4116 303.0
44.446 314.0
44.4805 273.0
44.515 272.0
44.5494 226.0
44.5839 208.0
44.6184 184.0
44.6528 163.0
44.6873 155.0
44.7218 122.0
44.7562 146.0
44.7907 141.0
44.8252 139.0
44.8596 128.0
44.8941 134.0
44.9286 109.0
44.963 140.0
44.9975 135.0