Folder: DataAnalysis/data/W6857m/XRD_Omega

Note: README.md
# Methods
## RSM analysis

Check out [doc](documentation/RSM.md)

File: W6857m_Cr2O3_scan_omega_2deg_step_0.002deg0_6.xy
30.28910 288.0
30.29710 285.0
30.30510 302.0
30.31310 321.0
30.32110 323.0
30.32910 284.0
30.33710 304.0
30.34510 287.0
30.35310 318.0
30.36110 306.0
30.36910 304.0
30.37710 306.0
30.38510 308.0
30.39310 313.0
30.40110 337.0
30.40910 286.0
30.41710 348.0
30.42510 331.0
30.43310 372.0
30.44110 355.0
30.44910 395.0
30.45710 381.0
30.46510 367.0
30.47310 388.0
30.48110 382.0
30.48910 399.0
30.49710 407.0
30.50510 358.0
30.51310 392.0
30.52110 415.0
30.52910 388.0
30.53710 409.0
30.54510 390.0
30.55310 430.0
30.56110 471.0
30.56910 409.0
30.57710 426.0
30.58510 475.0
30.59310 443.0
30.60110 505.0
30.60910 479.0
30.61710 478.0
30.62510 516.0
30.63310 533.0
30.64110 534.0
30.64910 548.0
30.65710 531.0
30.66510 513.0
30.67310 571.0
30.68110 589.0
30.68910 570.0
30.69710 577.0
30.70510 570.0
30.71310 636.0
30.72110 641.0
30.72910 603.0
30.73710 662.0
30.74510 656.0
30.75310 682.0
30.76110 733.0
30.76910 714.0
30.77710 688.0
30.78510 749.0
30.79310 802.0
30.80110 771.0
30.80910 828.0
30.81710 805.0
30.82510 843.0
30.83310 891.0
30.84110 860.0
30.84910 878.0
30.85710 944.0
30.86510 972.0
30.87310 962.0
30.88110 996.0
30.88910 1039.0
30.89710 1022.0
30.90510 1153.0
30.91310 1062.0
30.92110 1131.0
30.92910 1186.0
30.93710 1179.0
30.94510 1259.0
30.95310 1309.0
30.96110 1275.0
30.96910 1314.0
30.97710 1397.0
30.98510 1442.0
30.99310 1437.0
31.00110 1439.0
31.00910 1513.0
31.01710 1449.0
31.02510 1583.0
31.03310 1632.0
31.04110 1659.0
31.04910 1643.0
31.05710 1691.0
31.06510 1743.0
31.07310 1807.0
31.08110 1720.0
31.08910 1791.0
31.09710 1864.0
31.10510 1863.0
31.11310 1891.0
31.12110 1867.0
31.12910 1936.0
31.13710 1929.0
31.14510 1919.0
31.15310 1936.0
31.16110 1950.0
31.16910 1974.0
31.17710 2106.0
31.18510 2100.0
31.19310 1978.0
31.20110 2085.0
31.20910 2022.0
31.21710 2195.0
31.22510 2178.0
31.23310 2119.0
31.24110 2142.0
31.24910 2088.0
31.25710 2103.0
31.26510 2104.0
31.27310 2149.0
31.28110 2156.0
31.28910 2205.0
31.29710 2150.0
31.30510 2144.0
31.31310 2126.0
31.32110 2159.0
31.32910 2193.0
31.33710 2258.0
31.34510 2249.0
31.35310 2196.0
31.36110 2247.0
31.36910 2122.0
31.37710 2105.0
31.38510 2129.0
31.39310 2168.0
31.40110 2140.0
31.40910 2158.0
31.41710 2085.0
31.42510 2030.0
31.43310 2089.0
31.44110 2082.0
31.44910 2130.0
31.45710 2029.0
31.46510 1928.0
31.47310 2081.0
31.48110 1992.0
31.48910 2025.0
31.49710 1985.0
31.50510 1952.0
31.51310 1830.0
31.52110 1964.0
31.52910 1880.0
31.53710 1895.0
31.54510 1874.0
31.55310 1915.0
31.56110 1884.0
31.56910 1811.0
31.57710 1791.0
31.58510 1722.0
31.59310 1674.0
31.60110 1715.0
31.60910 1683.0
31.61710 1685.0
31.62510 1571.0
31.63310 1590.0
31.64110 1647.0
31.64910 1569.0
31.65710 1478.0
31.66510 1577.0
31.67310 1501.0
31.68110 1470.0
31.68910 1384.0
31.69710 1398.0
31.70510 1479.0
31.71310 1402.0
31.72110 1268.0
31.72910 1370.0
31.73710 1389.0
31.74510 1284.0
31.75310 1319.0
31.76110 1229.0
31.76910 1259.0
31.77710 1249.0
31.78510 1252.0
31.79310 1148.0
31.80110 1226.0
31.80910 1195.0
31.81710 1101.0
31.82510 1098.0
31.83310 1106.0
31.84110 1056.0
31.84910 986.0
31.85710 1033.0
31.86510 1007.0
31.87310 1006.0
31.88110 1053.0
31.88910 1016.0
31.89710 955.0
31.90510 905.0
31.91310 959.0
31.92110 949.0
31.92910 886.0
31.93710 971.0
31.94510 906.0
31.95310 886.0
31.96110 805.0
31.96910 887.0
31.97710 862.0
31.98510 749.0
31.99310 827.0
32.00110 813.0
32.00910 734.0
32.01710 787.0
32.02510 811.0
32.03310 792.0
32.04110 827.0
32.04910 814.0
32.05710 852.0
32.06510 840.0
32.07310 902.0
32.08110 981.0
32.08910 1157.0
32.09710 1413.0
32.10510 1678.0
32.11310 1996.0
32.12110 1933.0
32.12910 1732.0
32.13710 1530.0
32.14510 1309.0
32.15310 1182.0
32.16110 1115.0
32.16910 1174.0
32.17710 1069.0
32.18510 1027.0
32.19310 944.0
32.20110 989.0
32.20910 984.0
32.21710 870.0
32.22510 812.0
32.23310 834.0
32.24110 808.0
32.24910 834.0
32.25710 773.0
32.26510 686.0
32.27310 655.0