Folder: DataAnalysis/data/W6857m/XRD_2ThetaOmega

Note: data/W6857m/XRD_2ThetaOmega/W6857m_peaks.TXT
No.	Label	Pos. [°2Th.]	FWHM Left [°2Th.]	Area [cts*°2Th.]	Backgr.[cts]	d-spacing [Å]	Height [cts]	Shape Left	Status	Integral Breadth [°2Th.]	FWHM Right [°2Th.]	Shape Right	Obs. Lorentz B [°2Th.]	Obs. Gauss B [°2Th.]	Instr. Lorentz B [°2Th.]	Instr. Gauss B [°2Th.]	Crystallite Size [Å]	Micro Strain [%]	Crystallite Size only [Å]	Micro Strain only [%]
1	Cr2O3 3 0 0	64,415(3)	0,70(1)	69,92	11,24	1,44525	80(1)	0,49(5)	Included	0,877415	 	 	0,461463	0,552110	0,077303	0,065489	271,559600	0,379738	127,515900	0,566694
2	Al2O3 3 0 0	68,14554(4)	0,0596(1)	2580,42	39,77	1,37493	33992(61)	0,511(2)	Included	0,075912	 	 	0,041802	0,046298	0,078465	0,066474	-2906,636000	-0,030772	33694,710000	0,002040

Note: README.md
# Methods
## RSM analysis

Check out [doc](documentation/RSM.md)

File: W6857m_absolute_2th-om_10-130deg_PIXscan_17min_6.xy
10.0035 25.0
10.4072 21.0
10.811 12.0
11.2147 16.0
11.6185 21.0
12.0222 21.0
12.426 19.0
12.8298 21.0
13.2335 16.0
13.6373 17.0
14.041 10.0
14.4448 18.0
14.8485 26.0
15.2523 15.0
15.656 13.0
16.0598 16.0
16.4636 13.0
16.8673 15.0
17.2711 18.0
17.6748 14.0
18.0786 19.0
18.4823 10.0
18.8861 8.0
19.2899 4.0
19.6936 10.0
20.0974 11.0
20.5011 16.0
20.9049 13.0
21.3086 11.0
21.7124 17.0
22.1161 12.0
22.5199 15.0
22.9237 10.0
23.3274 13.0
23.7312 8.0
24.1349 15.0
24.5387 10.0
24.9424 10.0
25.3462 13.0
25.75 15.0
26.1537 14.0
26.5575 8.0
26.9612 3.0
27.365 8.0
27.7687 8.0
28.1725 5.0
28.5762 11.0
28.98 12.0
29.3838 9.0
29.7875 5.0
30.1913 9.0
30.595 8.0
30.9988 10.0
31.4025 7.0
31.8063 4.0
32.2101 4.0
32.6138 8.0
33.0176 9.0
33.4213 6.0
33.8251 11.0
34.2288 9.0
34.6326 7.0
35.0363 6.0
35.4401 4.0
35.8439 18.0
36.2476 8.0
36.6514 12.0
37.0551 8.0
37.4589 5.0
37.8626 7.0
38.2664 12.0
38.6702 6.0
39.0739 6.0
39.4777 5.0
39.8814 5.0
40.2852 9.0
40.6889 4.0
41.0927 9.0
41.4964 9.0
41.9002 9.0
42.304 4.0
42.7077 16.0
43.1115 7.0
43.5152 10.0
43.919 11.0
44.3227 16.0
44.7265 10.0
45.1303 11.0
45.534 5.0
45.9378 6.0
46.3415 3.0
46.7453 9.0
47.149 8.0
47.5528 7.0
47.9565 10.0
48.3603 10.0
48.7641 10.0
49.1678 5.0
49.5716 9.0
49.9753 6.0
50.3791 6.0
50.7828 8.0
51.1866 5.0
51.5903 14.0
51.9941 8.0
52.3979 8.0
52.8016 12.0
53.2054 9.0
53.6091 11.0
54.0129 8.0
54.4166 8.0
54.8204 12.0
55.2242 6.0
55.6279 16.0
56.0317 11.0
56.4354 9.0
56.8392 11.0
57.2429 8.0
57.6467 7.0
58.0504 5.0
58.4542 4.0
58.858 17.0
59.2617 8.0
59.6655 5.0
60.0692 9.0
60.473 9.0
60.8767 64.0
61.2805 9.0
61.6843 16.0
62.088 11.0
62.4918 7.0
62.8955 14.0
63.2993 17.0
63.703 20.0
64.1068 53.0
64.5105 133.0
64.9143 167.0
65.3181 17.0
65.7218 13.0
66.1256 26.0
66.5293 27.0
66.9331 25.0
67.3368 42.0
67.7406 150.0
68.1444 31583.0
68.5481 338.0
68.9519 83.0
69.3556 66.0
69.7594 64.0
70.1631 31.0
70.5669 20.0
70.9706 24.0
71.3744 15.0
71.7782 18.0
72.1819 13.0
72.5857 19.0
72.9894 6.0
73.3932 16.0
73.7969 13.0
74.2007 14.0
74.6045 11.0
75.0082 8.0
75.412 12.0
75.8157 7.0
76.2195 9.0
76.6232 5.0
77.027 15.0
77.4307 12.0
77.8345 10.0
78.2383 11.0
78.642 10.0
79.0458 8.0
79.4495 7.0
79.8533 9.0
80.257 14.0
80.6608 13.0
81.0646 8.0
81.4683 12.0
81.8721 7.0
82.2758 5.0
82.6796 7.0
83.0833 10.0
83.4871 11.0
83.8908 8.0
84.2946 13.0
84.6984 11.0
85.1021 10.0
85.5059 15.0
85.9096 10.0
86.3134 8.0
86.7171 10.0
87.1209 10.0
87.5247 13.0
87.9284 5.0
88.3322 11.0
88.7359 16.0
89.1397 9.0
89.5434 11.0
89.9472 11.0
90.3509 11.0
90.7547 14.0
91.1585 15.0
91.5622 8.0
91.966 8.0
92.3697 9.0
92.7735 16.0
93.1772 5.0
93.581 9.0
93.9848 16.0
94.3885 6.0
94.7923 13.0
95.196 17.0
95.5998 10.0
96.0035 6.0
96.4073 9.0
96.811 10.0
97.2148 7.0
97.6186 14.0
98.0223 12.0
98.4261 9.0
98.8298 12.0
99.2336 8.0
99.6373 11.0
100.041 9.0
100.445 13.0
100.849 7.0
101.252 5.0
101.656 18.0
102.06 12.0
102.464 12.0
102.867 5.0
103.271 9.0
103.675 7.0
104.079 5.0
104.482 11.0
104.886 10.0
105.29 12.0
105.694 13.0
106.097 13.0
106.501 11.0
106.905 16.0
107.309 8.0
107.712 15.0
108.116 7.0
108.52 11.0
108.924 10.0
109.327 17.0
109.731 10.0
110.135 12.0
110.539 6.0
110.943 8.0
111.346 4.0
111.75 11.0
112.154 12.0
112.558 10.0
112.961 4.0
113.365 8.0
113.769 5.0
114.173 16.0
114.576 11.0
114.98 16.0
115.384 4.0
115.788 22.0
116.191 6.0
116.595 6.0
116.999 8.0
117.403 8.0
117.806 10.0
118.21 10.0
118.614 12.0
119.018 8.0
119.421 7.0
119.825 12.0
120.229 8.0
120.633 9.0
121.036 12.0
121.44 10.0
121.844 9.0
122.248 6.0
122.651 5.0
123.055 4.0
123.459 11.0
123.863 7.0
124.266 10.0
124.67 10.0
125.074 6.0
125.478 8.0
125.881 9.0
126.285 9.0
126.689 9.0
127.093 12.0
127.497 7.0
127.9 5.0
128.304 11.0
128.708 8.0
129.112 12.0
129.515 9.0
129.919 10.0
129.998 9.0