Folder: DataAnalysis/data/W6933a/XRD_2ThetaOmega

Note: data/W6933a/XRD_2ThetaOmega/W6933a_peaks.TXT
No.	Label	Pos. [°2Th.]	FWHM Left [°2Th.]	Area [cts*°2Th.]	Backgr.[cts]	d-spacing [Å]	Height [cts]	Shape Left	Status	Integral Breadth [°2Th.]	FWHM Right [°2Th.]	Shape Right	Obs. Lorentz B [°2Th.]	Obs. Gauss B [°2Th.]	Instr. Lorentz B [°2Th.]	Instr. Gauss B [°2Th.]	Crystallite Size [Å]	Micro Strain [%]	Crystallite Size only [Å]	Micro Strain only [%]
1	Cr2O3 1 1 0	36,0462(8)	0,104(3)	82,17	-3,19	2,48965	546(12)	0,83(3)	Included	0,150558	 	 	0,127771	0,050258	0,073949	0,062646	1724,649000	-0,050154	1718,736000	0,072427
2	Al2O3 1 1 0	37,78648(6)	0,0318(2)	830,58	11,22	2,37889	19980(96)	0,577(6)	Included	0,041569	 	 	0,025551	0,023209	0,073930	0,062631	-1928,459000	-0,074164	29499,550000	0,004032

Note: README.md
# Methods
## RSM analysis

Check out [doc](documentation/RSM.md)

File: a_scan_2th-om_10-130deg_PIXscan_17min.xy
10.0035 39.0
10.4072 36.0
10.811 41.0
11.2147 47.0
11.6185 43.0
12.0222 34.0
12.426 39.0
12.8298 37.0
13.2335 53.0
13.6373 48.0
14.041 39.0
14.4448 35.0
14.8485 46.0
15.2523 33.0
15.656 36.0
16.0598 30.0
16.4636 34.0
16.8673 31.0
17.2711 31.0
17.6748 33.0
18.0786 26.0
18.4823 30.0
18.8861 38.0
19.2899 26.0
19.6936 23.0
20.0974 31.0
20.5011 24.0
20.9049 23.0
21.3086 34.0
21.7124 25.0
22.1161 38.0
22.5199 28.0
22.9237 27.0
23.3274 28.0
23.7312 27.0
24.1349 28.0
24.5387 20.0
24.9424 11.0
25.3462 38.0
25.75 17.0
26.1537 22.0
26.5575 18.0
26.9612 20.0
27.365 21.0
27.7687 18.0
28.1725 24.0
28.5762 24.0
28.98 34.0
29.3838 29.0
29.7875 14.0
30.1913 27.0
30.595 32.0
30.9988 23.0
31.4025 10.0
31.8063 27.0
32.2101 22.0
32.6138 28.0
33.0176 20.0
33.4213 20.0
33.8251 23.0
34.2288 34.0
34.6326 25.0
35.0363 33.0
35.4401 39.0
35.8439 529.0
36.2476 382.0
36.6514 78.0
37.0551 86.0
37.4589 194.0
37.8626 9643.0
38.2664 111.0
38.6702 48.0
39.0739 32.0
39.4777 31.0
39.8814 25.0
40.2852 25.0
40.6889 22.0
41.0927 30.0
41.4964 17.0
41.9002 36.0
42.304 27.0
42.7077 17.0
43.1115 30.0
43.5152 28.0
43.919 42.0
44.3227 48.0
44.7265 27.0
45.1303 24.0
45.534 29.0
45.9378 26.0
46.3415 30.0
46.7453 29.0
47.149 22.0
47.5528 28.0
47.9565 32.0
48.3603 24.0
48.7641 29.0
49.1678 25.0
49.5716 33.0
49.9753 20.0
50.3791 30.0
50.7828 20.0
51.1866 29.0
51.5903 24.0
51.9941 23.0
52.3979 29.0
52.8016 20.0
53.2054 18.0
53.6091 27.0
54.0129 29.0
54.4166 22.0
54.8204 25.0
55.2242 16.0
55.6279 22.0
56.0317 32.0
56.4354 31.0
56.8392 24.0
57.2429 31.0
57.6467 36.0
58.0504 24.0
58.4542 41.0
58.858 26.0
59.2617 31.0
59.6655 41.0
60.0692 31.0
60.473 20.0
60.8767 32.0
61.2805 29.0
61.6843 25.0
62.088 25.0
62.4918 26.0
62.8955 24.0
63.2993 25.0
63.703 23.0
64.1068 24.0
64.5105 26.0
64.9143 35.0
65.3181 34.0
65.7218 28.0
66.1256 31.0
66.5293 24.0
66.9331 30.0
67.3368 24.0
67.7406 28.0
68.1444 28.0
68.5481 27.0
68.9519 22.0
69.3556 28.0
69.7594 24.0
70.1631 27.0
70.5669 23.0
70.9706 24.0
71.3744 30.0
71.7782 34.0
72.1819 26.0
72.5857 37.0
72.9894 34.0
73.3932 33.0
73.7969 24.0
74.2007 27.0
74.6045 25.0
75.0082 26.0
75.412 44.0
75.8157 45.0
76.2195 141.0
76.6232 224.0
77.027 72.0
77.4307 32.0
77.8345 40.0
78.2383 41.0
78.642 29.0
79.0458 29.0
79.4495 42.0
79.8533 59.0
80.257 161.0
80.6608 17361.0
81.0646 267.0
81.4683 54.0
81.8721 44.0
82.2758 34.0
82.6796 42.0
83.0833 41.0
83.4871 34.0
83.8908 31.0
84.2946 34.0
84.6984 31.0
85.1021 26.0
85.5059 33.0
85.9096 35.0
86.3134 32.0
86.7171 29.0
87.1209 32.0
87.5247 28.0
87.9284 45.0
88.3322 40.0
88.7359 33.0
89.1397 27.0
89.5434 26.0
89.9472 30.0
90.3509 31.0
90.7547 28.0
91.1585 27.0
91.5622 33.0
91.966 33.0
92.3697 31.0
92.7735 23.0
93.1772 34.0
93.581 23.0
93.9848 29.0
94.3885 28.0
94.7923 38.0
95.196 32.0
95.5998 26.0
96.0035 30.0
96.4073 30.0
96.811 32.0
97.2148 38.0
97.6186 27.0
98.0223 24.0
98.4261 28.0
98.8298 36.0
99.2336 29.0
99.6373 39.0
100.041 37.0
100.445 22.0
100.849 27.0
101.252 33.0
101.656 23.0
102.06 36.0
102.464 39.0
102.867 28.0
103.271 21.0
103.675 27.0
104.079 38.0
104.482 25.0
104.886 38.0
105.29 35.0
105.694 37.0
106.097 47.0
106.501 38.0
106.905 38.0
107.309 21.0
107.712 27.0
108.116 26.0
108.52 33.0
108.924 31.0
109.327 26.0
109.731 24.0
110.135 36.0
110.539 29.0
110.943 32.0
111.346 23.0
111.75 38.0
112.154 28.0
112.558 26.0
112.961 31.0
113.365 27.0
113.769 38.0
114.173 30.0
114.576 23.0
114.98 23.0
115.384 23.0
115.788 27.0
116.191 29.0
116.595 37.0
116.999 35.0
117.403 35.0
117.806 24.0
118.21 20.0
118.614 35.0
119.018 33.0
119.421 43.0
119.825 26.0
120.229 35.0
120.633 33.0
121.036 29.0
121.44 46.0
121.844 27.0
122.248 21.0
122.651 59.0
123.055 30.0
123.459 27.0
123.863 28.0
124.266 40.0
124.67 35.0
125.074 36.0
125.478 33.0
125.881 32.0
126.285 46.0
126.689 32.0
127.093 38.0
127.497 33.0
127.9 31.0
128.304 39.0
128.708 22.0
129.112 28.0
129.515 34.0
129.919 33.0
129.998 33.0

File: w6933a_2theta
30.01000 0.0
30.05000 0.0
30.09000 0.0
30.13000 0.0
30.17000 0.0
30.21000 0.0
30.25000 1.0
30.29000 0.0
30.33000 1.0
30.37000 1.0
30.41000 0.0
30.45000 2.0
30.49000 2.0
30.53000 0.0
30.57000 0.0
30.61000 1.0
30.65000 0.0
30.69000 0.0
30.73000 1.0
30.77000 0.0
30.81000 2.0
30.85000 1.0
30.89000 0.0
30.93000 1.0
30.97000 1.0
31.01000 0.0
31.05000 0.0
31.09000 0.0
31.13000 0.0
31.17000 1.0
31.21000 0.0
31.25000 0.0
31.29000 0.0
31.33000 0.0
31.37000 0.0
31.41000 0.0
31.45000 0.0
31.49000 1.0
31.53000 0.0
31.57000 0.0
31.61000 1.0
31.65000 1.0
31.69000 1.0
31.73000 0.0
31.77000 0.0
31.81000 1.0
31.85000 0.0
31.89000 0.0
31.93000 0.0
31.97000 1.0
32.01000 1.0
32.05000 0.0
32.09000 0.0
32.13000 0.0
32.17000 0.0
32.21000 0.0
32.25000 1.0
32.29000 0.0
32.33000 0.0
32.37000 0.0
32.41000 0.0
32.45000 0.0
32.49000 0.0
32.53000 0.0
32.57000 0.0
32.61000 0.0
32.65000 0.0
32.69000 0.0
32.73000 1.0
32.77000 0.0
32.81000 0.0
32.85000 0.0
32.89000 1.0
32.93000 1.0
32.97000 0.0
33.01000 0.0
33.05000 2.0
33.09000 1.0
33.13000 2.0
33.17000 0.0
33.21000 0.0
33.25000 0.0
33.29000 0.0
33.33000 0.0
33.37000 0.0
33.41000 0.0
33.45000 0.0
33.49000 1.0
33.53000 0.0
33.57000 2.0
33.61000 1.0
33.65000 1.0
33.69000 0.0
33.73000 0.0
33.77000 0.0
33.81000 1.0
33.85000 0.0
33.89000 0.0
33.93000 1.0
33.97000 0.0
34.01000 3.0
34.05000 0.0
34.09000 1.0
34.13000 0.0
34.17000 0.0
34.21000 1.0
34.25000 1.0
34.29000 1.0
34.33000 0.0
34.37000 0.0
34.41000 1.0
34.45000 2.0
34.49000 0.0
34.53000 0.0
34.57000 0.0
34.61000 1.0
34.65000 3.0
34.69000 1.0
34.73000 1.0
34.77000 0.0
34.81000 0.0
34.85000 1.0
34.89000 2.0
34.93000 0.0
34.97000 1.0
35.01000 2.0
35.05000 0.0
35.09000 1.0
35.13000 1.0
35.17000 0.0
35.21000 0.0
35.25000 3.0
35.29000 1.0
35.33000 4.0
35.37000 2.0
35.41000 2.0
35.45000 0.0
35.49000 1.0
35.53000 8.0
35.57000 4.0
35.61000 5.0
35.65000 7.0
35.69000 9.0
35.73000 10.0
35.77000 19.0
35.81000 21.0
35.85000 27.0
35.89000 37.0
35.93000 73.0
35.97000 187.0
36.01000 401.0
36.05000 586.0
36.09000 437.0
36.13000 426.0
36.17000 299.0
36.21000 128.0
36.25000 84.0
36.29000 58.0
36.33000 34.0
36.37000 25.0
36.41000 17.0
36.45000 10.0
36.49000 12.0
36.53000 7.0
36.57000 7.0
36.61000 15.0
36.65000 5.0
36.69000 3.0
36.73000 5.0
36.77000 6.0
36.81000 4.0
36.85000 3.0
36.89000 4.0
36.93000 6.0
36.97000 4.0
37.01000 7.0
37.05000 13.0
37.09000 6.0
37.13000 11.0
37.17000 4.0
37.21000 9.0
37.25000 10.0
37.29000 12.0
37.33000 20.0
37.37000 20.0
37.41000 24.0
37.45000 27.0
37.49000 34.0
37.53000 50.0
37.57000 68.0
37.61000 147.0
37.65000 204.0
37.69000 284.0
37.73000 702.0
37.77000 10430.0
37.81000 5074.0
37.85000 1457.0
37.89000 8817.0
37.93000 708.0
37.97000 310.0
38.01000 211.0
38.05000 204.0
38.09000 110.0
38.13000 99.0
38.17000 69.0
38.21000 24.0
38.25000 27.0
38.29000 19.0
38.33000 20.0
38.37000 24.0
38.41000 12.0
38.45000 11.0
38.49000 9.0
38.53000 18.0
38.57000 8.0
38.61000 10.0
38.65000 2.0
38.69000 6.0
38.73000 4.0
38.77000 6.0
38.81000 4.0
38.85000 3.0
38.89000 3.0
38.93000 1.0
38.97000 2.0
39.01000 4.0
39.05000 2.0
39.09000 2.0
39.13000 6.0
39.17000 4.0
39.21000 3.0
39.25000 2.0
39.29000 0.0
39.33000 1.0
39.37000 2.0
39.41000 2.0
39.45000 2.0
39.49000 0.0
39.53000 2.0
39.57000 2.0
39.61000 5.0
39.65000 0.0
39.69000 0.0
39.73000 1.0
39.77000 3.0
39.81000 0.0
39.85000 3.0
39.89000 1.0
39.93000 1.0
39.97000 0.0
39.99000 5.0