Folder: DataAnalysis/data/W6933a/XRD_Omega

Note: data/W6933a/XRD_Omega/W6933a_omega_peaks.TXT
No.	Label	Pos. [記mega]	FWHM Left [記mega]	Area [cts*記mega]	Backgr.[cts]	d-spacing [魔	Height [cts]	Shape Left	Status	Integral Breadth [記mega]	FWHM Right [記mega]	Shape Right	Obs. Lorentz B [記mega]	Obs. Gauss B [記mega]	Instr. Lorentz B [記mega]	Instr. Gauss B [記mega]	Crystallite Size [魔	Micro Strain [%]	Crystallite Size only [魔	Micro Strain only [%]
1	Cr2O3 1 1 0	18,2546(2)	0,5109(6)	4770,13	62,51	 	7523(10)	0,441(2)	Included	0,634063	 	 	0,304876	0,420927	0,075403	0,063875	389,596900	1,129926	155,694000	1,559466

Note: README.md
# Methods
## RSM analysis

Check out [doc](documentation/RSM.md)

File: film_a_scan_omega_4deg_step_0.005deg0.xy
16.27940 87.0
16.29440 87.0
16.30940 86.0
16.32440 81.0
16.33940 71.0
16.35440 86.0
16.36940 86.0
16.38440 90.0
16.39940 74.0
16.41440 79.0
16.42940 76.0
16.44440 66.0
16.45940 71.0
16.47440 84.0
16.48940 85.0
16.50440 86.0
16.51940 89.0
16.53440 92.0
16.54940 83.0
16.56440 103.0
16.57940 97.0
16.59440 85.0
16.60940 99.0
16.62440 89.0
16.63940 99.0
16.65440 100.0
16.66940 105.0
16.68440 114.0
16.69940 107.0
16.71440 125.0
16.72940 124.0
16.74440 92.0
16.75940 107.0
16.77440 123.0
16.78940 132.0
16.80440 128.0
16.81940 130.0
16.83440 140.0
16.84940 148.0
16.86440 121.0
16.87940 141.0
16.89440 145.0
16.90940 144.0
16.92440 132.0
16.93940 149.0
16.95440 145.0
16.96940 149.0
16.98440 167.0
16.99940 153.0
17.01440 198.0
17.02940 178.0
17.04440 184.0
17.05940 202.0
17.07440 175.0
17.08940 200.0
17.10440 228.0
17.11940 194.0
17.13440 222.0
17.14940 239.0
17.16440 217.0
17.17940 256.0
17.19440 283.0
17.20940 275.0
17.22440 244.0
17.23940 283.0
17.25440 298.0
17.26940 309.0
17.28440 295.0
17.29940 328.0
17.31440 323.0
17.32940 344.0
17.34440 387.0
17.35940 386.0
17.37440 376.0
17.38940 448.0
17.40440 489.0
17.41940 444.0
17.43440 502.0
17.44940 510.0
17.46440 581.0
17.47940 559.0
17.49440 606.0
17.50940 610.0
17.52440 662.0
17.53940 721.0
17.55440 764.0
17.56940 745.0
17.58440 835.0
17.59940 915.0
17.61440 929.0
17.62940 946.0
17.64440 1061.0
17.65940 1114.0
17.67440 1126.0
17.68940 1236.0
17.70440 1326.0
17.71940 1448.0
17.73440 1556.0
17.74940 1682.0
17.76440 1767.0
17.77940 1847.0
17.79440 1990.0
17.80940 2072.0
17.82440 2275.0
17.83940 2386.0
17.85440 2533.0
17.86940 2655.0
17.88440 2877.0
17.89940 3062.0
17.91440 3172.0
17.92940 3563.0
17.94440 3597.0
17.95940 4021.0
17.97440 4231.0
17.98940 4649.0
18.00440 4844.0
18.01940 5038.0
18.03440 5529.0
18.04940 5936.0
18.06440 6192.0
18.07940 6642.0
18.09440 7123.0
18.10940 7537.0
18.12440 8128.0
18.13940 8775.0
18.15440 9306.0
18.16940 9755.0
18.18440 10330.0
18.19940 11306.0
18.21440 12258.0
18.22940 13516.0
18.24440 14856.0
18.25940 14610.0
18.27440 13908.0
18.28940 13850.0
18.30440 13100.0
18.31940 11963.0
18.33440 11564.0
18.34940 10533.0
18.36440 10230.0
18.37940 9275.0
18.39440 8719.0
18.40940 8301.0
18.42440 7695.0
18.43940 7228.0
18.45440 6991.0
18.46940 6618.0
18.48440 6054.0
18.49940 5881.0
18.51440 5389.0
18.52940 4996.0
18.54440 4761.0
18.55940 4440.0
18.57440 4121.0
18.58940 3889.0
18.60440 3787.0
18.61940 3548.0
18.63440 3177.0
18.64940 3040.0
18.66440 2805.0
18.67940 2604.0
18.69440 2362.0
18.70940 2247.0
18.72440 2132.0
18.73940 2000.0
18.75440 1924.0
18.76940 1778.0
18.78440 1596.0
18.79940 1579.0
18.81440 1484.0
18.82940 1392.0
18.84440 1309.0
18.85940 1285.0
18.87440 1132.0
18.88940 1061.0
18.90440 1000.0
18.91940 947.0
18.93440 864.0
18.94940 880.0
18.96440 777.0
18.97940 776.0
18.99440 702.0
19.00940 705.0
19.02440 688.0
19.03940 591.0
19.05440 592.0
19.06940 530.0
19.08440 521.0
19.09940 431.0
19.11440 478.0
19.12940 436.0
19.14440 477.0
19.15940 420.0
19.17440 388.0
19.18940 377.0
19.20440 347.0
19.21940 333.0
19.23440 312.0
19.24940 314.0
19.26440 258.0
19.27940 266.0
19.29440 265.0
19.30940 266.0
19.32440 238.0
19.33940 246.0
19.35440 212.0
19.36940 199.0
19.38440 238.0
19.39940 202.0
19.41440 205.0
19.42940 210.0
19.44440 178.0
19.45940 189.0
19.47440 184.0
19.48940 160.0
19.50440 152.0
19.51940 160.0
19.53440 158.0
19.54940 156.0
19.56440 143.0
19.57940 133.0
19.59440 137.0
19.60940 129.0
19.62440 121.0
19.63940 122.0
19.65440 112.0
19.66940 120.0
19.68440 104.0
19.69940 124.0
19.71440 101.0
19.72940 109.0
19.74440 99.0
19.75940 108.0
19.77440 104.0
19.78940 104.0
19.80440 108.0
19.81940 98.0
19.83440 83.0
19.84940 102.0
19.86440 87.0
19.87940 78.0
19.89440 94.0
19.90940 93.0
19.92440 91.0
19.93940 85.0
19.95440 92.0
19.96940 107.0
19.98440 87.0
19.99940 70.0
20.01440 76.0
20.02940 83.0
20.04440 83.0
20.05940 80.0
20.07440 71.0
20.08940 76.0
20.10440 79.0
20.11940 63.0
20.13440 66.0
20.14940 72.0
20.16440 70.0
20.17940 81.0
20.19440 77.0
20.20940 82.0
20.22440 65.0
20.23940 69.0