Folder: DataAnalysis/data/W6908m/XRD_Omega

Note: data/W6908m/XRD_Omega/W6908m_omega_peaks.TXT
No.	Label	Pos. [記mega]	FWHM Left [記mega]	Area [cts*記mega]	Backgr.[cts]	d-spacing [魔	Height [cts]	Shape Left	Status	Integral Breadth [記mega]	FWHM Right [記mega]	Shape Right	Obs. Lorentz B [記mega]	Obs. Gauss B [記mega]	Instr. Lorentz B [記mega]	Instr. Gauss B [記mega]	Crystallite Size [魔	Micro Strain [%]	Crystallite Size only [魔	Micro Strain only [%]
1	Cr2O3 3 0 0	32,614(4)	0,80(2)	127,21	73,45	 	101(1)	1,00(3)	Included	1,261545	 	 	1,255625	0,021305	0,074055	0,062736	77,836740	-0,088008	77,836190	1,762292

Note: README.md
# Methods
## RSM analysis

Check out [doc](documentation/RSM.md)

File: scan_omega_4deg_step_0.005deg0_C9_2.xy
30.61730 95.0
30.63230 90.0
30.64730 83.0
30.66230 89.0
30.67730 86.0
30.69230 66.0
30.70730 87.0
30.72230 86.0
30.73730 81.0
30.75230 96.0
30.76730 86.0
30.78230 91.0
30.79730 86.0
30.81230 96.0
30.82730 86.0
30.84230 104.0
30.85730 93.0
30.87230 91.0
30.88730 70.0
30.90230 75.0
30.91730 86.0
30.93230 96.0
30.94730 80.0
30.96230 76.0
30.97730 96.0
30.99230 85.0
31.00730 97.0
31.02230 90.0
31.03730 80.0
31.05230 84.0
31.06730 89.0
31.08230 70.0
31.09730 84.0
31.11230 88.0
31.12730 75.0
31.14230 80.0
31.15730 98.0
31.17230 82.0
31.18730 76.0
31.20230 86.0
31.21730 85.0
31.23230 94.0
31.24730 98.0
31.26230 89.0
31.27730 89.0
31.29230 95.0
31.30730 95.0
31.32230 80.0
31.33730 100.0
31.35230 85.0
31.36730 91.0
31.38230 87.0
31.39730 80.0
31.41230 89.0
31.42730 92.0
31.44230 90.0
31.45730 92.0
31.47230 84.0
31.48730 96.0
31.50230 82.0
31.51730 116.0
31.53230 109.0
31.54730 84.0
31.56230 112.0
31.57730 107.0
31.59230 71.0
31.60730 88.0
31.62230 98.0
31.63730 98.0
31.65230 92.0
31.66730 89.0
31.68230 91.0
31.69730 111.0
31.71230 104.0
31.72730 118.0
31.74230 108.0
31.75730 113.0
31.77230 92.0
31.78730 110.0
31.80230 133.0
31.81730 108.0
31.83230 98.0
31.84730 99.0
31.86230 121.0
31.87730 109.0
31.89230 110.0
31.90730 94.0
31.92230 109.0
31.93730 96.0
31.95230 107.0
31.96730 119.0
31.98230 119.0
31.99730 132.0
32.01230 130.0
32.02730 137.0
32.04230 133.0
32.05730 136.0
32.07230 136.0
32.08730 128.0
32.10230 137.0
32.11730 134.0
32.13230 122.0
32.14730 149.0
32.16230 174.0
32.17730 164.0
32.19230 181.0
32.20730 145.0
32.22230 143.0
32.23730 165.0
32.25230 161.0
32.26730 152.0
32.28230 144.0
32.29730 175.0
32.31230 164.0
32.32730 143.0
32.34230 176.0
32.35730 168.0
32.37230 166.0
32.38730 172.0
32.40230 147.0
32.41730 159.0
32.43230 187.0
32.44730 208.0
32.46230 185.0
32.47730 214.0
32.49230 214.0
32.50730 234.0
32.52230 245.0
32.53730 246.0
32.55230 291.0
32.56730 263.0
32.58230 235.0
32.59730 234.0
32.61230 222.0
32.62730 225.0
32.64230 248.0
32.65730 227.0
32.67230 245.0
32.68730 241.0
32.70230 232.0
32.71730 233.0
32.73230 205.0
32.74730 177.0
32.76230 156.0
32.77730 178.0
32.79230 194.0
32.80730 156.0
32.82230 156.0
32.83730 188.0
32.85230 134.0
32.86730 174.0
32.88230 174.0
32.89730 184.0
32.91230 188.0
32.92730 170.0
32.94230 166.0
32.95730 179.0
32.97230 148.0
32.98730 170.0
33.00230 161.0
33.01730 163.0
33.03230 157.0
33.04730 157.0
33.06230 136.0
33.07730 147.0
33.09230 133.0
33.10730 140.0
33.12230 139.0
33.13730 160.0
33.15230 156.0
33.16730 139.0
33.18230 136.0
33.19730 114.0
33.21230 143.0
33.22730 103.0
33.24230 118.0
33.25730 119.0
33.27230 131.0
33.28730 134.0
33.30230 113.0
33.31730 104.0
33.33230 138.0
33.34730 117.0
33.36230 127.0
33.37730 104.0
33.39230 112.0
33.40730 111.0
33.42230 110.0
33.43730 97.0
33.45230 94.0
33.46730 101.0
33.48230 123.0
33.49730 105.0
33.51230 107.0
33.52730 112.0
33.54230 108.0
33.55730 91.0
33.57230 97.0
33.58730 102.0
33.60230 96.0
33.61730 92.0
33.63230 103.0
33.64730 84.0
33.66230 88.0
33.67730 90.0
33.69230 92.0
33.70730 79.0
33.72230 84.0
33.73730 84.0
33.75230 91.0
33.76730 77.0
33.78230 74.0
33.79730 94.0
33.81230 69.0
33.82730 77.0
33.84230 83.0
33.85730 95.0
33.87230 89.0
33.88730 93.0
33.90230 90.0
33.91730 85.0
33.93230 72.0
33.94730 75.0
33.96230 95.0
33.97730 62.0
33.99230 103.0
34.00730 84.0
34.02230 84.0
34.03730 89.0
34.05230 77.0
34.06730 88.0
34.08230 73.0
34.09730 71.0
34.11230 111.0
34.12730 88.0
34.14230 83.0
34.15730 98.0
34.17230 79.0
34.18730 64.0
34.20230 88.0
34.21730 93.0
34.23230 71.0
34.24730 87.0
34.26230 62.0
34.27730 83.0
34.29230 94.0
34.30730 95.0
34.32230 79.0
34.33730 86.0
34.35230 70.0
34.36730 75.0
34.38230 88.0
34.39730 80.0
34.41230 76.0
34.42730 60.0
34.44230 89.0
34.45730 75.0
34.47230 77.0
34.48730 64.0
34.50230 72.0
34.51730 95.0
34.53230 70.0
34.54730 69.0
34.56230 83.0
34.57730 90.0