Folder: DataAnalysis/data/W6908m/XRD_2ThetaOmega

Note: data/W6908m/XRD_2ThetaOmega/W6908_peaks.TXT
No.	Label	Pos. [°2Th.]	FWHM Left [°2Th.]	Area [cts*°2Th.]	Backgr.[cts]	d-spacing [Å]	Height [cts]	Shape Left	Status	Integral Breadth [°2Th.]	FWHM Right [°2Th.]	Shape Right	Obs. Lorentz B [°2Th.]	Obs. Gauss B [°2Th.]	Instr. Lorentz B [°2Th.]	Instr. Gauss B [°2Th.]	Crystallite Size [Å]	Micro Strain [%]	Crystallite Size only [Å]	Micro Strain only [%]
1	Cr2O3 3 0 0	65,00(2)	1(1)	99,37	186,41	1,43372	118(160)	0(1)	Included	0,843082	 	 	0,002062	0,843082	0,077470	0,065631	-1387,896000	0,575720	124,501600	0,575784
2	Al2O3 3 0 0	68,15448(1)	0,05949(4)	22294,83	165,80	1,37477	291227(178)	0,5360(8)	Included	0,076555	 	 	0,044028	0,045203	0,078468	0,066476	-3094,379000	-0,031439	33696,480000	0,002040

Note: README.md
# Methods
## RSM analysis

Check out [doc](documentation/RSM.md)

File: scan_2th-om_m_Cr2O3_55-75deg_PIXscan_4min_C9.xy
55.0019 135.0
55.0708 125.0
55.1397 129.0
55.2087 129.0
55.2776 150.0
55.3465 142.0
55.4155 137.0
55.4844 164.0
55.5533 142.0
55.6223 134.0
55.6912 123.0
55.7601 145.0
55.8291 142.0
55.898 139.0
55.9669 136.0
56.0359 122.0
56.1048 128.0
56.1737 125.0
56.2427 146.0
56.3116 126.0
56.3805 131.0
56.4495 140.0
56.5184 125.0
56.5873 135.0
56.6563 145.0
56.7252 143.0
56.7941 127.0
56.8631 149.0
56.932 137.0
57.0009 162.0
57.0699 158.0
57.1388 146.0
57.2077 145.0
57.2767 146.0
57.3456 120.0
57.4146 153.0
57.4835 136.0
57.5524 132.0
57.6214 128.0
57.6903 149.0
57.7592 138.0
57.8282 120.0
57.8971 134.0
57.966 120.0
58.035 144.0
58.1039 153.0
58.1728 159.0
58.2418 122.0
58.3107 127.0
58.3796 124.0
58.4486 116.0
58.5175 131.0
58.5864 147.0
58.6554 126.0
58.7243 136.0
58.7932 153.0
58.8622 120.0
58.9311 157.0
59 140.0
59.069 147.0
59.1379 160.0
59.2068 140.0
59.2758 150.0
59.3447 142.0
59.4136 145.0
59.4826 146.0
59.5515 154.0
59.6204 134.0
59.6894 142.0
59.7583 132.0
59.8272 145.0
59.8962 161.0
59.9651 128.0
60.034 124.0
60.103 140.0
60.1719 136.0
60.2408 143.0
60.3098 146.0
60.3787 142.0
60.4476 144.0
60.5166 145.0
60.5855 188.0
60.6544 174.0
60.7234 199.0
60.7923 597.0
60.8613 821.0
60.9302 439.0
60.9991 228.0
61.0681 149.0
61.137 139.0
61.2059 150.0
61.2749 163.0
61.3438 157.0
61.4127 172.0
61.4817 148.0
61.5506 185.0
61.6195 170.0
61.6885 145.0
61.7574 151.0
61.8263 151.0
61.8953 138.0
61.9642 167.0
62.0331 152.0
62.1021 154.0
62.171 144.0
62.2399 141.0
62.3089 146.0
62.3778 161.0
62.4467 122.0
62.5157 150.0
62.5846 150.0
62.6535 156.0
62.7225 141.0
62.7914 146.0
62.8603 166.0
62.9293 160.0
62.9982 158.0
63.0671 174.0
63.1361 140.0
63.205 153.0
63.2739 177.0
63.3429 163.0
63.4118 155.0
63.4807 165.0
63.5497 146.0
63.6186 184.0
63.6875 143.0
63.7565 157.0
63.8254 179.0
63.8943 157.0
63.9633 173.0
64.0322 172.0
64.1011 185.0
64.1701 176.0
64.239 190.0
64.3079 179.0
64.3769 180.0
64.4458 196.0
64.5148 215.0
64.5837 261.0
64.6526 279.0
64.7216 279.0
64.7905 339.0
64.8594 356.0
64.9284 358.0
64.9973 360.0
65.0662 345.0
65.1352 361.0
65.2041 357.0
65.273 327.0
65.342 320.0
65.4109 317.0
65.4798 276.0
65.5488 238.0
65.6177 256.0
65.6866 233.0
65.7556 227.0
65.8245 234.0
65.8934 220.0
65.9624 228.0
66.0313 229.0
66.1002 225.0
66.1692 231.0
66.2381 292.0
66.307 224.0
66.376 272.0
66.4449 297.0
66.5138 298.0
66.5828 301.0
66.6517 358.0
66.7206 363.0
66.7896 369.0
66.8585 384.0
66.9274 394.0
66.9964 400.0
67.0653 418.0
67.1342 470.0
67.2032 486.0
67.2721 542.0
67.341 576.0
67.41 628.0
67.4789 674.0
67.5478 752.0
67.6168 919.0
67.6857 1045.0
67.7546 1743.0
67.8236 2834.0
67.8925 2779.0
67.9615 3500.0
68.0304 7391.0
68.0993 40225.0
68.1683 253613.0
68.2372 18746.0
68.3061 48222.0
68.3751 85272.0
68.444 7309.0
68.5129 3342.0
68.5819 2190.0
68.6508 1624.0
68.7197 1291.0
68.7887 998.0
68.8576 846.0
68.9265 683.0
68.9955 670.0
69.0644 603.0
69.1333 491.0
69.2023 456.0
69.2712 407.0
69.3401 447.0
69.4091 348.0
69.478 341.0
69.5469 331.0
69.6159 288.0
69.6848 265.0
69.7537 260.0
69.8227 281.0
69.8916 222.0
69.9605 210.0
70.0295 225.0
70.0984 208.0
70.1673 185.0
70.2363 204.0
70.3052 207.0
70.3741 203.0
70.4431 183.0
70.512 196.0
70.5809 192.0
70.6499 201.0
70.7188 172.0
70.7877 188.0
70.8567 172.0
70.9256 174.0
70.9945 211.0
71.0635 155.0
71.1324 167.0
71.2013 187.0
71.2703 184.0
71.3392 143.0
71.4082 181.0
71.4771 167.0
71.546 168.0
71.615 181.0
71.6839 165.0
71.7528 154.0
71.8218 180.0
71.8907 155.0
71.9596 168.0
72.0286 167.0
72.0975 135.0
72.1664 195.0
72.2354 153.0
72.3043 157.0
72.3732 164.0
72.4422 149.0
72.5111 176.0
72.58 135.0
72.649 151.0
72.7179 178.0
72.7868 140.0
72.8558 165.0
72.9247 178.0
72.9936 157.0
73.0626 145.0
73.1315 160.0
73.2004 146.0
73.2694 162.0
73.3383 156.0
73.4072 172.0
73.4762 149.0
73.5451 155.0
73.614 144.0
73.683 170.0
73.7519 149.0
73.8208 162.0
73.8898 162.0
73.9587 140.0
74.0276 170.0
74.0966 148.0
74.1655 162.0
74.2344 145.0
74.3034 142.0
74.3723 153.0
74.4412 159.0
74.5102 149.0
74.5791 142.0
74.648 168.0
74.717 167.0
74.7859 125.0
74.8548 162.0
74.9238 138.0
74.9927 170.0
74.9976 150.0