Folder: DataAnalysis/data/W6932c/XRD_2ThetaOmega

Note: data/W6932c/XRD_2ThetaOmega/W6932c_peaks.TXT
No.	Label	Pos. [°2Th.]	FWHM Left [°2Th.]	Area [cts*°2Th.]	Backgr.[cts]	d-spacing [Å]	Height [cts]	Shape Left	Status	Integral Breadth [°2Th.]	FWHM Right [°2Th.]	Shape Right	Obs. Lorentz B [°2Th.]	Obs. Gauss B [°2Th.]	Instr. Lorentz B [°2Th.]	Instr. Gauss B [°2Th.]	Crystallite Size [Å]	Micro Strain [%]	Crystallite Size only [Å]	Micro Strain only [%]
1	Cr2O3 0 0 6	39,2761(3)	0,171(1)	695,03	70,09	2,29203	3136(15)	0,551(8)	Included	0,221598	 	 	0,130728	0,128203	0,073934	0,062634	1650,171000	0,136784	621,602600	0,184365
2	Al2O3 0 0 6	41,62002(3)	0,03480(7)	1961,79	72,41	2,16821	44747(93)	0,481(3)	Included	0,043842	 	 	0,022845	0,027752	0,073977	0,062671	-1846,781000	-0,064511	29858,050000	0,003631

Note: README.md
# Methods
## RSM analysis

Check out [doc](documentation/RSM.md)

File: scan_2th-om_c_Cr2O3_35-45deg_PIXscan_4min.xy
35.0021 70.0
35.0365 73.0
35.071 60.0
35.1055 54.0
35.1399 63.0
35.1744 58.0
35.2089 72.0
35.2433 76.0
35.2778 63.0
35.3123 59.0
35.3467 66.0
35.3812 79.0
35.4157 62.0
35.4501 53.0
35.4846 72.0
35.5191 65.0
35.5535 58.0
35.588 65.0
35.6225 51.0
35.6569 69.0
35.6914 70.0
35.7259 70.0
35.7603 60.0
35.7948 55.0
35.8293 67.0
35.8637 65.0
35.8982 67.0
35.9327 51.0
35.9671 68.0
36.0016 49.0
36.0361 61.0
36.0705 69.0
36.105 70.0
36.1395 55.0
36.1739 60.0
36.2084 65.0
36.2429 55.0
36.2773 58.0
36.3118 61.0
36.3463 67.0
36.3807 66.0
36.4152 63.0
36.4497 53.0
36.4841 69.0
36.5186 68.0
36.5531 56.0
36.5875 47.0
36.622 52.0
36.6565 63.0
36.6909 81.0
36.7254 66.0
36.7599 66.0
36.7943 60.0
36.8288 56.0
36.8633 61.0
36.8977 51.0
36.9322 70.0
36.9667 75.0
37.0011 66.0
37.0356 69.0
37.0701 65.0
37.1045 60.0
37.139 59.0
37.1735 64.0
37.2079 63.0
37.2424 69.0
37.2769 67.0
37.3114 72.0
37.3458 57.0
37.3803 73.0
37.4148 112.0
37.4492 185.0
37.4837 94.0
37.5182 77.0
37.5526 82.0
37.5871 58.0
37.6216 72.0
37.656 60.0
37.6905 70.0
37.725 67.0
37.7594 70.0
37.7939 71.0
37.8284 72.0
37.8628 75.0
37.8973 78.0
37.9318 74.0
37.9662 69.0
38.0007 59.0
38.0352 89.0
38.0696 87.0
38.1041 84.0
38.1386 79.0
38.173 97.0
38.2075 74.0
38.242 85.0
38.2764 70.0
38.3109 88.0
38.3454 88.0
38.3798 92.0
38.4143 75.0
38.4488 92.0
38.4832 85.0
38.5177 127.0
38.5522 110.0
38.5866 123.0
38.6211 136.0
38.6556 148.0
38.69 130.0
38.7245 152.0
38.759 161.0
38.7934 193.0
38.8279 175.0
38.8624 215.0
38.8968 296.0
38.9313 303.0
38.9658 361.0
39.0002 400.0
39.0347 478.0
39.0692 585.0
39.1036 787.0
39.1381 937.0
39.1726 1432.0
39.207 1908.0
39.2415 2655.0
39.276 4275.0
39.3104 4247.0
39.3449 3491.0
39.3794 2980.0
39.4138 2330.0
39.4483 1465.0
39.4828 788.0
39.5172 496.0
39.5517 325.0
39.5862 225.0
39.6206 166.0
39.6551 130.0
39.6896 99.0
39.724 108.0
39.7585 117.0
39.793 107.0
39.8274 92.0
39.8619 98.0
39.8964 84.0
39.9308 89.0
39.9653 79.0
39.9998 92.0
40.0342 97.0
40.0687 61.0
40.1032 64.0
40.1376 76.0
40.1721 90.0
40.2066 71.0
40.241 66.0
40.2755 75.0
40.31 67.0
40.3444 81.0
40.3789 63.0
40.4134 70.0
40.4478 52.0
40.4823 69.0
40.5168 65.0
40.5512 80.0
40.5857 70.0
40.6202 90.0
40.6546 69.0
40.6891 81.0
40.7236 83.0
40.758 96.0
40.7925 81.0
40.827 81.0
40.8615 95.0
40.8959 104.0
40.9304 89.0
40.9649 90.0
40.9993 94.0
41.0338 98.0
41.0683 88.0
41.1027 119.0
41.1372 101.0
41.1717 123.0
41.2061 121.0
41.2406 132.0
41.2751 132.0
41.3095 152.0
41.344 161.0
41.3785 189.0
41.4129 337.0
41.4474 458.0
41.4819 445.0
41.5163 537.0
41.5508 1121.0
41.5853 4928.0
41.6197 44112.0
41.6542 5651.0
41.6887 2801.0
41.7231 20872.0
41.7576 4647.0
41.7921 846.0
41.8265 473.0
41.861 308.0
41.8955 218.0
41.9299 160.0
41.9644 143.0
41.9989 151.0
42.0333 119.0
42.0678 109.0
42.1023 123.0
42.1367 111.0
42.1712 102.0
42.2057 70.0
42.2401 104.0
42.2746 102.0
42.3091 102.0
42.3435 73.0
42.378 80.0
42.4125 66.0
42.4469 84.0
42.4814 79.0
42.5159 78.0
42.5503 71.0
42.5848 68.0
42.6193 79.0
42.6537 77.0
42.6882 71.0
42.7227 69.0
42.7571 61.0
42.7916 66.0
42.8261 64.0
42.8605 76.0
42.895 59.0
42.9295 89.0
42.9639 63.0
42.9984 77.0
43.0329 73.0
43.0673 74.0
43.1018 86.0
43.1363 49.0
43.1707 58.0
43.2052 57.0
43.2397 77.0
43.2741 56.0
43.3086 79.0
43.3431 64.0
43.3775 51.0
43.412 64.0
43.4465 69.0
43.4809 60.0
43.5154 67.0
43.5499 66.0
43.5843 72.0
43.6188 71.0
43.6533 73.0
43.6877 77.0
43.7222 59.0
43.7567 65.0
43.7911 55.0
43.8256 77.0
43.8601 73.0
43.8945 84.0
43.929 75.0
43.9635 76.0
43.9979 69.0
44.0324 80.0
44.0669 75.0
44.1013 88.0
44.1358 73.0
44.1703 114.0
44.2047 86.0
44.2392 95.0
44.2737 106.0
44.3081 120.0
44.3426 129.0
44.3771 130.0
44.4116 135.0
44.446 135.0
44.4805 117.0
44.515 133.0
44.5494 126.0
44.5839 107.0
44.6184 100.0
44.6528 99.0
44.6873 97.0
44.7218 79.0
44.7562 71.0
44.7907 75.0
44.8252 67.0
44.8596 67.0
44.8941 63.0
44.9286 62.0
44.963 63.0
44.9975 61.0