Folder: DataAnalysis/data/W6932c/XRD_Omega

Note: data/W6932c/XRD_Omega/W6932c_omega_peaks.TXT
No.	Label	Pos. [記mega]	FWHM Left [記mega]	Area [cts*記mega]	Backgr.[cts]	d-spacing [魔	Height [cts]	Shape Left	Status	Integral Breadth [記mega]	FWHM Right [記mega]	Shape Right	Obs. Lorentz B [記mega]	Obs. Gauss B [記mega]	Instr. Lorentz B [記mega]	Instr. Gauss B [記mega]	Crystallite Size [魔	Micro Strain [%]	Crystallite Size only [魔	Micro Strain only [%]
1	Cr2O3 0 0 6	19,5501(1)	0,1174(4)	723,17	32,08	 	5230(18)	0,299(4)	Included	0,138271	 	 	0,046034	0,106854	0,075226	0,063725	-3068,271000	0,217232	1044,168000	0,217256

Note: README.md
# Methods
## RSM analysis

Check out [doc](documentation/RSM.md)

File: film_c_scan_omega_4deg_step_0.005deg0.xy
17.58560 29.0
17.60060 43.0
17.61560 29.0
17.63060 27.0
17.64560 35.0
17.66060 29.0
17.67560 35.0
17.69060 35.0
17.70560 42.0
17.72060 25.0
17.73560 42.0
17.75060 35.0
17.76560 33.0
17.78060 29.0
17.79560 36.0
17.81060 33.0
17.82560 40.0
17.84060 37.0
17.85560 31.0
17.87060 33.0
17.88560 28.0
17.90060 37.0
17.91560 34.0
17.93060 35.0
17.94560 38.0
17.96060 33.0
17.97560 45.0
17.99060 35.0
18.00560 41.0
18.02060 27.0
18.03560 44.0
18.05060 38.0
18.06560 40.0
18.08060 33.0
18.09560 22.0
18.11060 31.0
18.12560 24.0
18.14060 41.0
18.15560 30.0
18.17060 39.0
18.18560 30.0
18.20060 33.0
18.21560 37.0
18.23060 34.0
18.24560 38.0
18.26060 37.0
18.27560 33.0
18.29060 38.0
18.30560 33.0
18.32060 34.0
18.33560 30.0
18.35060 29.0
18.36560 49.0
18.38060 39.0
18.39560 22.0
18.41060 30.0
18.42560 28.0
18.44060 38.0
18.45560 36.0
18.47060 28.0
18.48560 31.0
18.50060 35.0
18.51560 34.0
18.53060 37.0
18.54560 33.0
18.56060 45.0
18.57560 43.0
18.59060 30.0
18.60560 32.0
18.62060 33.0
18.63560 30.0
18.65060 34.0
18.66560 29.0
18.68060 33.0
18.69560 42.0
18.71060 39.0
18.72560 36.0
18.74060 44.0
18.75560 20.0
18.77060 34.0
18.78560 45.0
18.80060 39.0
18.81560 34.0
18.83060 30.0
18.84560 47.0
18.86060 42.0
18.87560 34.0
18.89060 35.0
18.90560 45.0
18.92060 41.0
18.93560 48.0
18.95060 45.0
18.96560 54.0
18.98060 53.0
18.99560 39.0
19.01060 46.0
19.02560 57.0
19.04060 52.0
19.05560 49.0
19.07060 49.0
19.08560 54.0
19.10060 52.0
19.11560 61.0
19.13060 53.0
19.14560 62.0
19.16060 67.0
19.17560 71.0
19.19060 47.0
19.20560 76.0
19.22060 71.0
19.23560 94.0
19.25060 85.0
19.26560 103.0
19.28060 128.0
19.29560 140.0
19.31060 137.0
19.32560 152.0
19.34060 164.0
19.35560 192.0
19.37060 210.0
19.38560 300.0
19.40060 319.0
19.41560 515.0
19.43060 934.0
19.44560 1274.0
19.46060 1609.0
19.47560 1942.0
19.49060 2611.0
19.50560 3439.0
19.52060 4589.0
19.53560 5986.0
19.55060 7560.0
19.56560 7636.0
19.58060 7033.0
19.59560 6203.0
19.61060 5300.0
19.62560 4111.0
19.64060 2764.0
19.65560 1915.0
19.67060 1376.0
19.68560 902.0
19.70060 613.0
19.71560 431.0
19.73060 335.0
19.74560 266.0
19.76060 196.0
19.77560 176.0
19.79060 157.0
19.80560 144.0
19.82060 104.0
19.83560 94.0
19.85060 101.0
19.86560 80.0
19.88060 101.0
19.89560 70.0
19.91060 65.0
19.92560 55.0
19.94060 74.0
19.95560 67.0
19.97060 61.0
19.98560 55.0
20.00060 60.0
20.01560 64.0
20.03060 47.0
20.04560 55.0
20.06060 34.0
20.07560 51.0
20.09060 32.0
20.10560 42.0
20.12060 43.0
20.13560 49.0
20.15060 41.0
20.16560 40.0
20.18060 43.0
20.19560 45.0
20.21060 39.0
20.22560 44.0
20.24060 32.0
20.25560 57.0
20.27060 40.0
20.28560 39.0
20.30060 45.0
20.31560 40.0
20.33060 50.0
20.34560 36.0
20.36060 37.0
20.37560 40.0
20.39060 41.0
20.40560 37.0
20.42060 32.0
20.43560 42.0
20.45060 38.0
20.46560 44.0
20.48060 48.0
20.49560 28.0
20.51060 30.0
20.52560 42.0
20.54060 35.0
20.55560 27.0
20.57060 30.0
20.58560 33.0
20.60060 36.0
20.61560 33.0
20.63060 28.0
20.64560 33.0
20.66060 31.0
20.67560 38.0
20.69060 29.0
20.70560 26.0
20.72060 29.0
20.73560 26.0
20.75060 32.0
20.76560 41.0
20.78060 25.0
20.79560 36.0
20.81060 35.0
20.82560 26.0
20.84060 31.0
20.85560 37.0
20.87060 36.0
20.88560 25.0
20.90060 32.0
20.91560 31.0
20.93060 37.0
20.94560 34.0
20.96060 31.0
20.97560 21.0
20.99060 33.0
21.00560 35.0
21.02060 28.0
21.03560 29.0
21.05060 41.0
21.06560 39.0
21.08060 30.0
21.09560 33.0
21.11060 35.0
21.12560 33.0
21.14060 41.0
21.15560 30.0
21.17060 29.0
21.18560 38.0
21.20060 30.0
21.21560 35.0
21.23060 25.0
21.24560 29.0
21.26060 48.0
21.27560 31.0
21.29060 31.0
21.30560 37.0
21.32060 38.0
21.33560 42.0
21.35060 34.0
21.36560 22.0
21.38060 27.0
21.39560 35.0
21.41060 38.0
21.42560 31.0
21.44060 33.0
21.45560 35.0
21.47060 30.0
21.48560 37.0
21.50060 27.0
21.51560 31.0
21.53060 47.0
21.54560 31.0