Folder: DataAnalysis/data/W6901c/XRD_2ThetaOmega

Note: data/W6901c/XRD_2ThetaOmega/W6901c_peaks.TXT
No.	Label	Pos. [°2Th.]	FWHM Left [°2Th.]	Area [cts*°2Th.]	Backgr.[cts]	d-spacing [Å]	Height [cts]	Shape Left	Status	Integral Breadth [°2Th.]	FWHM Right [°2Th.]	Shape Right	Obs. Lorentz B [°2Th.]	Obs. Gauss B [°2Th.]	Instr. Lorentz B [°2Th.]	Instr. Gauss B [°2Th.]	Crystallite Size [Å]	Micro Strain [%]	Crystallite Size only [Å]	Micro Strain only [%]
1	Cr2O3 0 0 6	38,284(3)	0,730(9)	121,95	124,44	2,34911	146(2)	0,21(8)	Included	0,834945	 	 	0,202622	0,698767	0,073929	0,062630	726,039800	0,874861	119,803600	0,980398
2	Al2O3 0 0 6	41,61727(2)	0,05152(6)	4601,91	143,11	2,16834	75029(92)	0,328(2)	Included	0,061335	 	 	0,022346	0,046009	0,073977	0,062671	-1828,912000	-0,048857	29857,780000	0,003631

Note: README.md
# Methods
## RSM analysis

Check out [doc](documentation/RSM.md)

File: scan_2th-om_c_Cr2O3_35-45deg_PIXscan_4min_C2.xy
35.0021 121.0
35.0365 107.0
35.071 111.0
35.1055 100.0
35.1399 108.0
35.1744 107.0
35.2089 120.0
35.2433 101.0
35.2778 95.0
35.3123 114.0
35.3467 104.0
35.3812 106.0
35.4157 112.0
35.4501 120.0
35.4846 127.0
35.5191 103.0
35.5535 116.0
35.588 98.0
35.6225 108.0
35.6569 111.0
35.6914 127.0
35.7259 129.0
35.7603 106.0
35.7948 106.0
35.8293 116.0
35.8637 109.0
35.8982 110.0
35.9327 117.0
35.9671 119.0
36.0016 94.0
36.0361 115.0
36.0705 108.0
36.105 86.0
36.1395 118.0
36.1739 108.0
36.2084 99.0
36.2429 115.0
36.2773 111.0
36.3118 103.0
36.3463 115.0
36.3807 88.0
36.4152 117.0
36.4497 122.0
36.4841 106.0
36.5186 85.0
36.5531 117.0
36.5875 108.0
36.622 116.0
36.6565 98.0
36.6909 105.0
36.7254 103.0
36.7599 109.0
36.7943 107.0
36.8288 99.0
36.8633 109.0
36.8977 120.0
36.9322 110.0
36.9667 111.0
37.0011 112.0
37.0356 115.0
37.0701 102.0
37.1045 113.0
37.139 117.0
37.1735 107.0
37.2079 130.0
37.2424 124.0
37.2769 121.0
37.3114 123.0
37.3458 118.0
37.3803 151.0
37.4148 281.0
37.4492 308.0
37.4837 173.0
37.5182 144.0
37.5526 147.0
37.5871 136.0
37.6216 134.0
37.656 146.0
37.6905 154.0
37.725 146.0
37.7594 162.0
37.7939 195.0
37.8284 178.0
37.8628 204.0
37.8973 210.0
37.9318 237.0
37.9662 212.0
38.0007 284.0
38.0352 293.0
38.0696 305.0
38.1041 244.0
38.1386 289.0
38.173 337.0
38.2075 376.0
38.242 346.0
38.2764 314.0
38.3109 322.0
38.3454 323.0
38.3798 309.0
38.4143 336.0
38.4488 327.0
38.4832 302.0
38.5177 307.0
38.5522 301.0
38.5866 286.0
38.6211 312.0
38.6556 232.0
38.69 230.0
38.7245 222.0
38.759 195.0
38.7934 164.0
38.8279 170.0
38.8624 177.0
38.8968 191.0
38.9313 178.0
38.9658 146.0
39.0002 154.0
39.0347 150.0
39.0692 133.0
39.1036 153.0
39.1381 149.0
39.1726 124.0
39.207 125.0
39.2415 139.0
39.276 129.0
39.3104 115.0
39.3449 129.0
39.3794 132.0
39.4138 122.0
39.4483 142.0
39.4828 123.0
39.5172 133.0
39.5517 129.0
39.5862 135.0
39.6206 121.0
39.6551 122.0
39.6896 113.0
39.724 119.0
39.7585 125.0
39.793 123.0
39.8274 103.0
39.8619 119.0
39.8964 118.0
39.9308 128.0
39.9653 136.0
39.9998 111.0
40.0342 133.0
40.0687 114.0
40.1032 128.0
40.1376 129.0
40.1721 130.0
40.2066 136.0
40.241 120.0
40.2755 138.0
40.31 140.0
40.3444 140.0
40.3789 123.0
40.4134 134.0
40.4478 133.0
40.4823 141.0
40.5168 137.0
40.5512 139.0
40.5857 152.0
40.6202 143.0
40.6546 115.0
40.6891 150.0
40.7236 165.0
40.758 142.0
40.7925 135.0
40.827 149.0
40.8615 180.0
40.8959 150.0
40.9304 172.0
40.9649 185.0
40.9993 175.0
41.0338 170.0
41.0683 191.0
41.1027 206.0
41.1372 201.0
41.1717 218.0
41.2061 215.0
41.2406 280.0
41.2751 306.0
41.3095 345.0
41.344 387.0
41.3785 568.0
41.4129 819.0
41.4474 1022.0
41.4819 1038.0
41.5163 1443.0
41.5508 3208.0
41.5853 29505.0
41.6197 68361.0
41.6542 18675.0
41.6887 12127.0
41.7231 34956.0
41.7576 14887.0
41.7921 2256.0
41.8265 1116.0
41.861 766.0
41.8955 544.0
41.9299 458.0
41.9644 408.0
41.9989 346.0
42.0333 289.0
42.0678 291.0
42.1023 286.0
42.1367 198.0
42.1712 225.0
42.2057 210.0
42.2401 183.0
42.2746 177.0
42.3091 186.0
42.3435 171.0
42.378 169.0
42.4125 145.0
42.4469 155.0
42.4814 151.0
42.5159 132.0
42.5503 146.0
42.5848 143.0
42.6193 151.0
42.6537 121.0
42.6882 120.0
42.7227 127.0
42.7571 121.0
42.7916 120.0
42.8261 134.0
42.8605 120.0
42.895 140.0
42.9295 133.0
42.9639 138.0
42.9984 132.0
43.0329 120.0
43.0673 142.0
43.1018 128.0
43.1363 128.0
43.1707 130.0
43.2052 128.0
43.2397 121.0
43.2741 123.0
43.3086 127.0
43.3431 109.0
43.3775 142.0
43.412 128.0
43.4465 132.0
43.4809 101.0
43.5154 123.0
43.5499 113.0
43.5843 117.0
43.6188 148.0
43.6533 135.0
43.6877 140.0
43.7222 133.0
43.7567 114.0
43.7911 148.0
43.8256 129.0
43.8601 133.0
43.8945 128.0
43.929 140.0
43.9635 144.0
43.9979 140.0
44.0324 135.0
44.0669 137.0
44.1013 152.0
44.1358 162.0
44.1703 170.0
44.2047 181.0
44.2392 163.0
44.2737 211.0
44.3081 217.0
44.3426 227.0
44.3771 272.0
44.4116 290.0
44.446 262.0
44.4805 245.0
44.515 255.0
44.5494 206.0
44.5839 193.0
44.6184 195.0
44.6528 166.0
44.6873 141.0
44.7218 137.0
44.7562 127.0
44.7907 122.0
44.8252 128.0
44.8596 115.0
44.8941 114.0
44.9286 124.0
44.963 118.0
44.9975 114.0