Folder: DataAnalysis/data/W6901c/XRD_Omega

Note: data/W6901c/XRD_Omega/W6901c_omega_peaks.TXT
No.	Label	Pos. [記mega]	FWHM Left [記mega]	Area [cts*記mega]	Backgr.[cts]	d-spacing [魔	Height [cts]	Shape Left	Status	Integral Breadth [記mega]	FWHM Right [記mega]	Shape Right	Obs. Lorentz B [記mega]	Obs. Gauss B [記mega]	Instr. Lorentz B [記mega]	Instr. Gauss B [記mega]	Crystallite Size [魔	Micro Strain [%]	Crystallite Size only [魔	Micro Strain only [%]
1	Cr2O3 0 0 6	19,181(4)	0,80(2)	144,16	51,50	 	115(1)	1,00(3)	Included	1,253791	 	 	1,247908	0,021174	0,075276	0,063767	76,341930	-0,155323	76,341370	3,028109

Note: README.md
# Methods
## RSM analysis

Check out [doc](documentation/RSM.md)

File: scan_omega_4deg_step_0.005deg0_C2_3.xy
17.21060 64.0
17.22560 52.0
17.24060 56.0
17.25560 55.0
17.27060 56.0
17.28560 65.0
17.30060 52.0
17.31560 76.0
17.33060 61.0
17.34560 46.0
17.36060 64.0
17.37560 55.0
17.39060 72.0
17.40560 63.0
17.42060 63.0
17.43560 66.0
17.45060 70.0
17.46560 50.0
17.48060 68.0
17.49560 64.0
17.51060 61.0
17.52560 58.0
17.54060 57.0
17.55560 64.0
17.57060 70.0
17.58560 63.0
17.60060 67.0
17.61560 62.0
17.63060 64.0
17.64560 52.0
17.66060 52.0
17.67560 73.0
17.69060 56.0
17.70560 61.0
17.72060 61.0
17.73560 69.0
17.75060 59.0
17.76560 52.0
17.78060 60.0
17.79560 68.0
17.81060 62.0
17.82560 62.0
17.84060 61.0
17.85560 62.0
17.87060 69.0
17.88560 66.0
17.90060 65.0
17.91560 74.0
17.93060 63.0
17.94560 61.0
17.96060 68.0
17.97560 75.0
17.99060 63.0
18.00560 67.0
18.02060 79.0
18.03560 71.0
18.05060 60.0
18.06560 74.0
18.08060 61.0
18.09560 74.0
18.11060 73.0
18.12560 82.0
18.14060 77.0
18.15560 73.0
18.17060 75.0
18.18560 75.0
18.20060 85.0
18.21560 83.0
18.23060 94.0
18.24560 78.0
18.26060 98.0
18.27560 103.0
18.29060 86.0
18.30560 86.0
18.32060 86.0
18.33560 84.0
18.35060 76.0
18.36560 82.0
18.38060 98.0
18.39560 75.0
18.41060 86.0
18.42560 97.0
18.44060 105.0
18.45560 96.0
18.47060 89.0
18.48560 102.0
18.50060 101.0
18.51560 93.0
18.53060 114.0
18.54560 110.0
18.56060 96.0
18.57560 120.0
18.59060 106.0
18.60560 107.0
18.62060 123.0
18.63560 103.0
18.65060 149.0
18.66560 132.0
18.68060 121.0
18.69560 134.0
18.71060 134.0
18.72560 126.0
18.74060 145.0
18.75560 121.0
18.77060 146.0
18.78560 156.0
18.80060 119.0
18.81560 121.0
18.83060 148.0
18.84560 144.0
18.86060 139.0
18.87560 167.0
18.89060 152.0
18.90560 154.0
18.92060 147.0
18.93560 168.0
18.95060 178.0
18.96560 155.0
18.98060 166.0
18.99560 195.0
19.01060 186.0
19.02560 190.0
19.04060 151.0
19.05560 176.0
19.07060 199.0
19.08560 239.0
19.10060 228.0
19.11560 251.0
19.13060 234.0
19.14560 254.0
19.16060 268.0
19.17560 238.0
19.19060 241.0
19.20560 229.0
19.22060 236.0
19.23560 251.0
19.25060 246.0
19.26560 235.0
19.28060 201.0
19.29560 219.0
19.31060 198.0
19.32560 215.0
19.34060 208.0
19.35560 186.0
19.37060 181.0
19.38560 175.0
19.40060 186.0
19.41560 160.0
19.43060 174.0
19.44560 163.0
19.46060 169.0
19.47560 150.0
19.49060 140.0
19.50560 190.0
19.52060 128.0
19.53560 154.0
19.55060 144.0
19.56560 141.0
19.58060 161.0
19.59560 124.0
19.61060 128.0
19.62560 142.0
19.64060 138.0
19.65560 158.0
19.67060 122.0
19.68560 123.0
19.70060 126.0
19.71560 106.0
19.73060 113.0
19.74560 123.0
19.76060 94.0
19.77560 113.0
19.79060 94.0
19.80560 107.0
19.82060 104.0
19.83560 101.0
19.85060 97.0
19.86560 90.0
19.88060 86.0
19.89560 85.0
19.91060 105.0
19.92560 101.0
19.94060 97.0
19.95560 90.0
19.97060 80.0
19.98560 97.0
20.00060 96.0
20.01560 94.0
20.03060 85.0
20.04560 84.0
20.06060 94.0
20.07560 80.0
20.09060 91.0
20.10560 87.0
20.12060 99.0
20.13560 74.0
20.15060 86.0
20.16560 97.0
20.18060 79.0
20.19560 74.0
20.21060 67.0
20.22560 56.0
20.24060 77.0
20.25560 76.0
20.27060 81.0
20.28560 85.0
20.30060 65.0
20.31560 76.0
20.33060 72.0
20.34560 82.0
20.36060 67.0
20.37560 70.0
20.39060 65.0
20.40560 70.0
20.42060 70.0
20.43560 64.0
20.45060 71.0
20.46560 61.0
20.48060 76.0
20.49560 66.0
20.51060 67.0
20.52560 65.0
20.54060 59.0
20.55560 65.0
20.57060 56.0
20.58560 51.0
20.60060 67.0
20.61560 84.0
20.63060 53.0
20.64560 62.0
20.66060 80.0
20.67560 50.0
20.69060 64.0
20.70560 49.0
20.72060 65.0
20.73560 63.0
20.75060 65.0
20.76560 61.0
20.78060 61.0
20.79560 60.0
20.81060 57.0
20.82560 71.0
20.84060 56.0
20.85560 64.0
20.87060 56.0
20.88560 50.0
20.90060 68.0
20.91560 65.0
20.93060 64.0
20.94560 54.0
20.96060 50.0
20.97560 55.0
20.99060 56.0
21.00560 51.0
21.02060 61.0
21.03560 37.0
21.05060 46.0
21.06560 55.0
21.08060 52.0
21.09560 44.0
21.11060 63.0
21.12560 49.0
21.14060 50.0
21.15560 62.0
21.17060 64.0