Folder: DataAnalysis/data/W6959a/XRD_2ThetaOmega

Note: README.md
# Methods
## RSM analysis

Check out [doc](documentation/RSM.md)

File: a_scan_2th-om_10-130deg_PIXscan_17min_C2.xy
10.0035 63.0
10.4072 39.0
10.811 52.0
11.2147 50.0
11.6185 33.0
12.0222 40.0
12.426 57.0
12.8298 44.0
13.2335 43.0
13.6373 45.0
14.041 34.0
14.4448 38.0
14.8485 45.0
15.2523 34.0
15.656 31.0
16.0598 40.0
16.4636 32.0
16.8673 35.0
17.2711 28.0
17.6748 31.0
18.0786 28.0
18.4823 33.0
18.8861 29.0
19.2899 29.0
19.6936 34.0
20.0974 30.0
20.5011 35.0
20.9049 23.0
21.3086 52.0
21.7124 33.0
22.1161 22.0
22.5199 25.0
22.9237 34.0
23.3274 26.0
23.7312 25.0
24.1349 29.0
24.5387 27.0
24.9424 34.0
25.3462 18.0
25.75 24.0
26.1537 25.0
26.5575 16.0
26.9612 19.0
27.365 33.0
27.7687 33.0
28.1725 26.0
28.5762 21.0
28.98 23.0
29.3838 20.0
29.7875 19.0
30.1913 25.0
30.595 23.0
30.9988 37.0
31.4025 24.0
31.8063 22.0
32.2101 70.0
32.6138 31.0
33.0176 25.0
33.4213 35.0
33.8251 35.0
34.2288 38.0
34.6326 74.0
35.0363 123.0
35.4401 277.0
35.8439 12343.0
36.2476 563.0
36.6514 128.0
37.0551 105.0
37.4589 199.0
37.8626 9959.0
38.2664 114.0
38.6702 55.0
39.0739 30.0
39.4777 36.0
39.8814 33.0
40.2852 29.0
40.6889 21.0
41.0927 25.0
41.4964 30.0
41.9002 27.0
42.304 16.0
42.7077 16.0
43.1115 24.0
43.5152 26.0
43.919 36.0
44.3227 52.0
44.7265 35.0
45.1303 30.0
45.534 21.0
45.9378 30.0
46.3415 37.0
46.7453 21.0
47.149 13.0
47.5528 30.0
47.9565 26.0
48.3603 23.0
48.7641 29.0
49.1678 22.0
49.5716 22.0
49.9753 24.0
50.3791 28.0
50.7828 18.0
51.1866 23.0
51.5903 30.0
51.9941 29.0
52.3979 37.0
52.8016 26.0
53.2054 33.0
53.6091 23.0
54.0129 29.0
54.4166 32.0
54.8204 20.0
55.2242 29.0
55.6279 29.0
56.0317 29.0
56.4354 36.0
56.8392 30.0
57.2429 23.0
57.6467 46.0
58.0504 38.0
58.4542 42.0
58.858 32.0
59.2617 35.0
59.6655 25.0
60.0692 24.0
60.473 41.0
60.8767 23.0
61.2805 26.0
61.6843 20.0
62.088 24.0
62.4918 26.0
62.8955 32.0
63.2993 31.0
63.703 24.0
64.1068 32.0
64.5105 39.0
64.9143 32.0
65.3181 26.0
65.7218 35.0
66.1256 28.0
66.5293 26.0
66.9331 32.0
67.3368 40.0
67.7406 38.0
68.1444 31.0
68.5481 43.0
68.9519 32.0
69.3556 36.0
69.7594 42.0
70.1631 34.0
70.5669 38.0
70.9706 36.0
71.3744 37.0
71.7782 37.0
72.1819 35.0
72.5857 44.0
72.9894 45.0
73.3932 35.0
73.7969 52.0
74.2007 32.0
74.6045 38.0
75.0082 27.0
75.412 64.0
75.8157 424.0
76.2195 3372.0
76.6232 219.0
77.027 48.0
77.4307 46.0
77.8345 36.0
78.2383 32.0
78.642 35.0
79.0458 46.0
79.4495 50.0
79.8533 65.0
80.257 149.0
80.6608 16439.0
81.0646 196.0
81.4683 54.0
81.8721 51.0
82.2758 50.0
82.6796 35.0
83.0833 29.0
83.4871 40.0
83.8908 28.0
84.2946 34.0
84.6984 36.0
85.1021 34.0
85.5059 33.0
85.9096 26.0
86.3134 25.0
86.7171 30.0
87.1209 36.0
87.5247 23.0
87.9284 31.0
88.3322 28.0
88.7359 42.0
89.1397 41.0
89.5434 38.0
89.9472 28.0
90.3509 33.0
90.7547 49.0
91.1585 35.0
91.5622 36.0
91.966 34.0
92.3697 37.0
92.7735 34.0
93.1772 34.0
93.581 39.0
93.9848 30.0
94.3885 28.0
94.7923 38.0
95.196 25.0
95.5998 30.0
96.0035 38.0
96.4073 33.0
96.811 22.0
97.2148 44.0
97.6186 35.0
98.0223 35.0
98.4261 43.0
98.8298 40.0
99.2336 43.0
99.6373 37.0
100.041 36.0
100.445 38.0
100.849 24.0
101.252 29.0
101.656 38.0
102.06 31.0
102.464 41.0
102.867 35.0
103.271 41.0
103.675 27.0
104.079 41.0
104.482 34.0
104.886 28.0
105.29 39.0
105.694 43.0
106.097 30.0
106.501 46.0
106.905 27.0
107.309 41.0
107.712 25.0
108.116 37.0
108.52 31.0
108.924 36.0
109.327 35.0
109.731 31.0
110.135 49.0
110.539 40.0
110.943 51.0
111.346 40.0
111.75 27.0
112.154 34.0
112.558 40.0
112.961 39.0
113.365 29.0
113.769 30.0
114.173 32.0
114.576 25.0
114.98 35.0
115.384 37.0
115.788 36.0
116.191 35.0
116.595 37.0
116.999 28.0
117.403 42.0
117.806 47.0
118.21 32.0
118.614 25.0
119.018 30.0
119.421 31.0
119.825 37.0
120.229 21.0
120.633 36.0
121.036 33.0
121.44 30.0
121.844 47.0
122.248 38.0
122.651 58.0
123.055 36.0
123.459 37.0
123.863 43.0
124.266 26.0
124.67 39.0
125.074 37.0
125.478 28.0
125.881 20.0
126.285 41.0
126.689 34.0
127.093 34.0
127.497 33.0
127.9 32.0
128.304 32.0
128.708 37.0
129.112 40.0
129.515 36.0
129.919 33.0
129.998 43.0