Folder: DataAnalysis/data/W6779m/XRD_2ThetaOmega

Note: data/W6779m/XRD_2ThetaOmega/W6779m_peaks.TXT
No.	Label	Pos. [°2Th.]	FWHM Left [°2Th.]	Area calc.	Assignment	h	k	l	Multiplicity	F obs.	F calc.	Area [cts*°2Th.]	Derivation	Backgr.[cts]	d-spacing [Å]	Height [cts]	K-A2 / K-A1 Ratio	Matched	Matched by	Rel. Int. [%]	Source	Status	Integral Breadth [°2Th.]
1	Cr2O3 3 0 0	64,771(1)	0,280(6)	0,00	 	3	0	0	 	0,000000	0,000000	89,79	Pure KA1	14,42	1,43815	235(4)	0,500	False	 	0,66	Profile fitting	Included	0,382598
2	Al2O3 3 0 0	68,15273(4)	0,0595(1)	0,00	 	3	0	0	 	0,000000	0,000000	2688,01	Pure KA1	38,10	1,37480	35322(62)	0,500	False	 	100,00	Profile fitting	Included	0,076100

Note: README.md
# Methods
## RSM analysis

Check out [doc](documentation/RSM.md)

File: W6779m_absolute_2th-om_10-130deg_PIXscan_17min_1.xy
10.0035 15.0
10.4072 16.0
10.811 26.0
11.2147 20.0
11.6185 17.0
12.0222 15.0
12.426 16.0
12.8298 13.0
13.2335 16.0
13.6373 22.0
14.041 9.0
14.4448 17.0
14.8485 12.0
15.2523 17.0
15.656 11.0
16.0598 16.0
16.4636 10.0
16.8673 11.0
17.2711 12.0
17.6748 10.0
18.0786 11.0
18.4823 14.0
18.8861 14.0
19.2899 7.0
19.6936 15.0
20.0974 10.0
20.5011 7.0
20.9049 8.0
21.3086 12.0
21.7124 9.0
22.1161 6.0
22.5199 11.0
22.9237 5.0
23.3274 8.0
23.7312 4.0
24.1349 11.0
24.5387 8.0
24.9424 10.0
25.3462 6.0
25.75 10.0
26.1537 7.0
26.5575 9.0
26.9612 6.0
27.365 4.0
27.7687 4.0
28.1725 9.0
28.5762 12.0
28.98 7.0
29.3838 9.0
29.7875 7.0
30.1913 7.0
30.595 6.0
30.9988 7.0
31.4025 8.0
31.8063 6.0
32.2101 4.0
32.6138 9.0
33.0176 6.0
33.4213 14.0
33.8251 8.0
34.2288 4.0
34.6326 3.0
35.0363 3.0
35.4401 3.0
35.8439 1.0
36.2476 7.0
36.6514 11.0
37.0551 4.0
37.4589 6.0
37.8626 16.0
38.2664 7.0
38.6702 10.0
39.0739 7.0
39.4777 13.0
39.8814 7.0
40.2852 10.0
40.6889 5.0
41.0927 6.0
41.4964 5.0
41.9002 13.0
42.304 7.0
42.7077 8.0
43.1115 7.0
43.5152 11.0
43.919 12.0
44.3227 17.0
44.7265 7.0
45.1303 7.0
45.534 6.0
45.9378 6.0
46.3415 8.0
46.7453 16.0
47.149 9.0
47.5528 9.0
47.9565 6.0
48.3603 8.0
48.7641 12.0
49.1678 10.0
49.5716 4.0
49.9753 10.0
50.3791 4.0
50.7828 14.0
51.1866 5.0
51.5903 7.0
51.9941 9.0
52.3979 5.0
52.8016 12.0
53.2054 1.0
53.6091 9.0
54.0129 10.0
54.4166 10.0
54.8204 5.0
55.2242 12.0
55.6279 11.0
56.0317 8.0
56.4354 7.0
56.8392 8.0
57.2429 9.0
57.6467 13.0
58.0504 4.0
58.4542 11.0
58.858 13.0
59.2617 7.0
59.6655 12.0
60.0692 7.0
60.473 13.0
60.8767 53.0
61.2805 7.0
61.6843 13.0
62.088 25.0
62.4918 13.0
62.8955 9.0
63.2993 8.0
63.703 16.0
64.1068 24.0
64.5105 73.0
64.9143 290.0
65.3181 33.0
65.7218 17.0
66.1256 12.0
66.5293 18.0
66.9331 30.0
67.3368 48.0
67.7406 151.0
68.1444 31596.0
68.5481 382.0
68.9519 103.0
69.3556 50.0
69.7594 43.0
70.1631 48.0
70.5669 24.0
70.9706 18.0
71.3744 14.0
71.7782 10.0
72.1819 10.0
72.5857 12.0
72.9894 11.0
73.3932 15.0
73.7969 11.0
74.2007 14.0
74.6045 14.0
75.0082 21.0
75.412 12.0
75.8157 13.0
76.2195 12.0
76.6232 5.0
77.027 13.0
77.4307 7.0
77.8345 7.0
78.2383 17.0
78.642 10.0
79.0458 13.0
79.4495 8.0
79.8533 10.0
80.257 8.0
80.6608 13.0
81.0646 9.0
81.4683 19.0
81.8721 11.0
82.2758 11.0
82.6796 16.0
83.0833 8.0
83.4871 12.0
83.8908 7.0
84.2946 8.0
84.6984 8.0
85.1021 11.0
85.5059 11.0
85.9096 5.0
86.3134 6.0
86.7171 15.0
87.1209 7.0
87.5247 17.0
87.9284 6.0
88.3322 9.0
88.7359 9.0
89.1397 6.0
89.5434 11.0
89.9472 9.0
90.3509 13.0
90.7547 11.0
91.1585 11.0
91.5622 7.0
91.966 10.0
92.3697 16.0
92.7735 7.0
93.1772 11.0
93.581 12.0
93.9848 11.0
94.3885 12.0
94.7923 12.0
95.196 9.0
95.5998 7.0
96.0035 12.0
96.4073 11.0
96.811 11.0
97.2148 10.0
97.6186 9.0
98.0223 14.0
98.4261 12.0
98.8298 7.0
99.2336 9.0
99.6373 15.0
100.041 6.0
100.445 6.0
100.849 9.0
101.252 6.0
101.656 8.0
102.06 9.0
102.464 14.0
102.867 9.0
103.271 10.0
103.675 16.0
104.079 13.0
104.482 11.0
104.886 12.0
105.29 11.0
105.694 12.0
106.097 16.0
106.501 8.0
106.905 13.0
107.309 10.0
107.712 8.0
108.116 14.0
108.52 10.0
108.924 8.0
109.327 6.0
109.731 13.0
110.135 8.0
110.539 10.0
110.943 5.0
111.346 14.0
111.75 8.0
112.154 14.0
112.558 8.0
112.961 10.0
113.365 11.0
113.769 9.0
114.173 12.0
114.576 14.0
114.98 10.0
115.384 10.0
115.788 5.0
116.191 12.0
116.595 11.0
116.999 17.0
117.403 7.0
117.806 7.0
118.21 9.0
118.614 5.0
119.018 15.0
119.421 12.0
119.825 6.0
120.229 12.0
120.633 12.0
121.036 13.0
121.44 13.0
121.844 11.0
122.248 13.0
122.651 6.0
123.055 10.0
123.459 11.0
123.863 11.0
124.266 7.0
124.67 9.0
125.074 11.0
125.478 12.0
125.881 13.0
126.285 13.0
126.689 11.0
127.093 4.0
127.497 12.0
127.9 21.0
128.304 8.0
128.708 3.0
129.112 9.0
129.515 11.0
129.919 9.0
129.998 9.0