Folder: DataAnalysis/data/W6911r/XRD_Omega

Note: data/W6911r/XRD_Omega/W6911r_omega_peaks.TXT
No.	Pos. [記mega]	FWHM Left [記mega]	Area [cts*記mega]	Backgr.[cts]	d-spacing [魔	Height [cts]	Shape Left	Status	Integral Breadth [記mega]	FWHM Right [記mega]	Shape Right	Obs. Lorentz B [記mega]	Obs. Gauss B [記mega]	Instr. Lorentz B [記mega]	Instr. Gauss B [記mega]	Crystallite Size [魔	Micro Strain [%]	Crystallite Size only [魔	Micro Strain only [%]
1	24,8725(9)	0,896(2)	916,39	51,51	 	881(2)	0,257(5)	Included	1,040438	 	 	0,300538	0,836788	0,074611	0,063205	400,087400	1,650928	91,875270	1,946614

Note: README.md
# Methods
## RSM analysis

Check out [doc](documentation/RSM.md)

File: w6911r_r-Cr2O3_scan_omega_4deg_step_0.005deg0_C1.xy
22.94040 58.0
22.95540 46.0
22.97040 57.0
22.98540 70.0
23.00040 52.0
23.01540 58.0
23.03040 54.0
23.04540 75.0
23.06040 68.0
23.07540 63.0
23.09040 61.0
23.10540 71.0
23.12040 63.0
23.13540 58.0
23.15040 69.0
23.16540 72.0
23.18040 66.0
23.19540 67.0
23.21040 46.0
23.22540 62.0
23.24040 62.0
23.25540 57.0
23.27040 62.0
23.28540 60.0
23.30040 72.0
23.31540 68.0
23.33040 65.0
23.34540 66.0
23.36040 69.0
23.37540 70.0
23.39040 92.0
23.40540 62.0
23.42040 72.0
23.43540 70.0
23.45040 85.0
23.46540 51.0
23.48040 72.0
23.49540 74.0
23.51040 68.0
23.52540 78.0
23.54040 77.0
23.55540 74.0
23.57040 82.0
23.58540 86.0
23.60040 74.0
23.61540 90.0
23.63040 78.0
23.64540 97.0
23.66040 100.0
23.67540 103.0
23.69040 80.0
23.70540 109.0
23.72040 95.0
23.73540 97.0
23.75040 93.0
23.76540 114.0
23.78040 108.0
23.79540 117.0
23.81040 112.0
23.82540 107.0
23.84040 108.0
23.85540 131.0
23.87040 104.0
23.88540 151.0
23.90040 131.0
23.91540 167.0
23.93040 130.0
23.94540 164.0
23.96040 163.0
23.97540 160.0
23.99040 181.0
24.00540 183.0
24.02040 198.0
24.03540 175.0
24.05040 202.0
24.06540 245.0
24.08040 228.0
24.09540 244.0
24.11040 256.0
24.12540 290.0
24.14040 312.0
24.15540 289.0
24.17040 326.0
24.18540 301.0
24.20040 344.0
24.21540 353.0
24.23040 354.0
24.24540 379.0
24.26040 374.0
24.27540 421.0
24.29040 423.0
24.30540 470.0
24.32040 481.0
24.33540 530.0
24.35040 563.0
24.36540 567.0
24.38040 547.0
24.39540 605.0
24.41040 688.0
24.42540 675.0
24.44040 718.0
24.45540 680.0
24.47040 712.0
24.48540 807.0
24.50040 825.0
24.51540 864.0
24.53040 824.0
24.54540 875.0
24.56040 1012.0
24.57540 986.0
24.59040 987.0
24.60540 1020.0
24.62040 990.0
24.63540 1078.0
24.65040 1098.0
24.66540 1129.0
24.68040 1133.0
24.69540 1241.0
24.71040 1159.0
24.72540 1227.0
24.74040 1197.0
24.75540 1272.0
24.77040 1257.0
24.78540 1228.0
24.80040 1274.0
24.81540 1287.0
24.83040 1344.0
24.84540 1412.0
24.86040 1388.0
24.87540 1378.0
24.89040 1381.0
24.90540 1416.0
24.92040 1399.0
24.93540 1353.0
24.95040 1362.0
24.96540 1370.0
24.98040 1385.0
24.99540 1393.0
25.01040 1456.0
25.02540 1356.0
25.04040 1371.0
25.05540 1394.0
25.07040 1328.0
25.08540 1306.0
25.10040 1279.0
25.11540 1239.0
25.13040 1246.0
25.14540 1107.0
25.16040 1044.0
25.17540 1059.0
25.19040 1027.0
25.20540 952.0
25.22040 926.0
25.23540 859.0
25.25040 839.0
25.26540 839.0
25.28040 824.0
25.29540 741.0
25.31040 727.0
25.32540 689.0
25.34040 678.0
25.35540 664.0
25.37040 638.0
25.38540 614.0
25.40040 588.0
25.41540 568.0
25.43040 542.0
25.44540 497.0
25.46040 488.0
25.47540 452.0
25.49040 382.0
25.50540 402.0
25.52040 417.0
25.53540 362.0
25.55040 386.0
25.56540 343.0
25.58040 349.0
25.59540 320.0
25.61040 314.0
25.62540 285.0
25.64040 254.0
25.65540 251.0
25.67040 249.0
25.68540 214.0
25.70040 230.0
25.71540 214.0
25.73040 198.0
25.74540 199.0
25.76040 192.0
25.77540 178.0
25.79040 190.0
25.80540 163.0
25.82040 164.0
25.83540 167.0
25.85040 185.0
25.86540 133.0
25.88040 138.0
25.89540 138.0
25.91040 131.0
25.92540 134.0
25.94040 135.0
25.95540 128.0
25.97040 114.0
25.98540 94.0
26.00040 119.0
26.01540 100.0
26.03040 117.0
26.04540 91.0
26.06040 87.0
26.07540 96.0
26.09040 85.0
26.10540 106.0
26.12040 88.0
26.13540 97.0
26.15040 94.0
26.16540 77.0
26.18040 100.0
26.19540 100.0
26.21040 80.0
26.22540 68.0
26.24040 83.0
26.25540 91.0
26.27040 101.0
26.28540 69.0
26.30040 62.0
26.31540 71.0
26.33040 81.0
26.34540 72.0
26.36040 86.0
26.37540 65.0
26.39040 58.0
26.40540 61.0
26.42040 77.0
26.43540 60.0
26.45040 73.0
26.46540 69.0
26.48040 81.0
26.49540 63.0
26.51040 65.0
26.52540 65.0
26.54040 62.0
26.55540 76.0
26.57040 52.0
26.58540 63.0
26.60040 64.0
26.61540 56.0
26.63040 71.0
26.64540 58.0
26.66040 49.0
26.67540 55.0
26.69040 81.0
26.70540 59.0
26.72040 62.0
26.73540 55.0
26.75040 54.0
26.76540 61.0
26.78040 59.0
26.79540 55.0
26.81040 65.0
26.82540 51.0
26.84040 58.0
26.85540 60.0
26.87040 48.0
26.88540 52.0
26.90040 42.0