Folder: DataAnalysis/data/W6911r/XRD_2ThetaOmega

Note: data/W6911r/XRD_2ThetaOmega/W6911r_peaks.TXT
No.	Label	Pos. [°2Th.]	FWHM Left [°2Th.]	Area [cts*°2Th.]	Backgr.[cts]	d-spacing [Å]	Height [cts]	Shape Left	Status	Integral Breadth [°2Th.]	FWHM Right [°2Th.]	Shape Right	Obs. Lorentz B [°2Th.]	Obs. Gauss B [°2Th.]	Instr. Lorentz B [°2Th.]	Instr. Gauss B [°2Th.]	Crystallite Size [Å]	Micro Strain [%]	Crystallite Size only [Å]	Micro Strain only [%]
1	Cr2O3 0 2 4	50,1007(6)	0,426(2)	858,42	174,11	1,81926	1535(6)	0,584(8)	Included	0,559136	 	 	0,347661	0,308886	0,074553	0,063160	356,762900	0,282275	195,374200	0,465583
2	Al2O3 0 2 4	52,49776(1)	0,05503(3)	32037,34	195,75	1,74169	472896(229)	0,4199(6)	Included	0,067747	 	 	0,031097	0,046090	0,074846	0,063408	-2249,620000	-0,038532	31119,190000	0,002798

Note: README.md
# Methods
## RSM analysis

Check out [doc](documentation/RSM.md)

File: w6911r_scan_2th-om_r2_Cr2O3_45-55deg_PIXscan_5min_C1.xy
45.0025 133.0
45.0369 110.0
45.0714 117.0
45.1059 114.0
45.1403 95.0
45.1748 91.0
45.2093 121.0
45.2437 92.0
45.2782 104.0
45.3127 93.0
45.3471 87.0
45.3816 100.0
45.4161 106.0
45.4505 103.0
45.485 106.0
45.5195 108.0
45.5539 92.0
45.5884 89.0
45.6229 98.0
45.6573 95.0
45.6918 88.0
45.7263 89.0
45.7607 85.0
45.7952 98.0
45.8297 103.0
45.8641 101.0
45.8986 103.0
45.9331 101.0
45.9675 86.0
46.002 99.0
46.0365 95.0
46.0709 105.0
46.1054 96.0
46.1399 108.0
46.1743 87.0
46.2088 88.0
46.2433 97.0
46.2777 96.0
46.3122 95.0
46.3467 88.0
46.3811 94.0
46.4156 97.0
46.4501 95.0
46.4845 107.0
46.519 100.0
46.5535 96.0
46.5879 105.0
46.6224 123.0
46.6569 108.0
46.6913 116.0
46.7258 101.0
46.7603 102.0
46.7947 133.0
46.8292 112.0
46.8637 123.0
46.8981 135.0
46.9326 123.0
46.9671 132.0
47.0015 132.0
47.036 291.0
47.0705 807.0
47.1049 1636.0
47.1394 1061.0
47.1739 366.0
47.2083 221.0
47.2428 156.0
47.2773 154.0
47.3118 136.0
47.3462 154.0
47.3807 117.0
47.4152 128.0
47.4496 103.0
47.4841 122.0
47.5186 120.0
47.553 110.0
47.5875 122.0
47.622 124.0
47.6564 119.0
47.6909 112.0
47.7254 112.0
47.7598 95.0
47.7943 128.0
47.8288 119.0
47.8632 99.0
47.8977 114.0
47.9322 128.0
47.9666 111.0
48.0011 110.0
48.0356 144.0
48.07 111.0
48.1045 109.0
48.139 129.0
48.1734 100.0
48.2079 125.0
48.2424 116.0
48.2768 105.0
48.3113 115.0
48.3458 132.0
48.3802 93.0
48.4147 135.0
48.4492 129.0
48.4836 122.0
48.5181 123.0
48.5526 125.0
48.587 111.0
48.6215 118.0
48.656 120.0
48.6904 103.0
48.7249 137.0
48.7594 123.0
48.7938 122.0
48.8283 125.0
48.8628 125.0
48.8972 141.0
48.9317 131.0
48.9662 106.0
49.0006 141.0
49.0351 128.0
49.0696 135.0
49.104 143.0
49.1385 139.0
49.173 133.0
49.2074 144.0
49.2419 164.0
49.2764 174.0
49.3108 148.0
49.3453 186.0
49.3798 183.0
49.4142 201.0
49.4487 204.0
49.4832 220.0
49.5176 244.0
49.5521 256.0
49.5866 280.0
49.621 317.0
49.6555 397.0
49.69 477.0
49.7244 490.0
49.7589 599.0
49.7934 717.0
49.8278 845.0
49.8623 964.0
49.8968 1138.0
49.9312 1369.0
49.9657 1581.0
50.0002 1841.0
50.0346 2016.0
50.0691 2156.0
50.1036 2302.0
50.138 2474.0
50.1725 2318.0
50.207 2320.0
50.2414 2054.0
50.2759 1855.0
50.3104 1605.0
50.3448 1402.0
50.3793 1243.0
50.4138 967.0
50.4482 873.0
50.4827 724.0
50.5172 610.0
50.5516 555.0
50.5861 495.0
50.6206 447.0
50.655 380.0
50.6895 350.0
50.724 337.0
50.7584 314.0
50.7929 294.0
50.8274 282.0
50.8619 303.0
50.8963 315.0
50.9308 322.0
50.9653 301.0
50.9997 306.0
51.0342 305.0
51.0687 266.0
51.1031 312.0
51.1376 333.0
51.1721 329.0
51.2065 366.0
51.241 377.0
51.2755 388.0
51.3099 377.0
51.3444 421.0
51.3789 435.0
51.4133 496.0
51.4478 460.0
51.4823 475.0
51.5167 501.0
51.5512 501.0
51.5857 545.0
51.6201 564.0
51.6546 654.0
51.6891 617.0
51.7235 637.0
51.758 669.0
51.7925 723.0
51.8269 706.0
51.8614 800.0
51.8959 808.0
51.9303 871.0
51.9648 888.0
51.9993 1029.0
52.0337 1108.0
52.0682 1254.0
52.1027 1347.0
52.1371 1581.0
52.1716 2074.0
52.2061 3037.0
52.2405 4548.0
52.275 5290.0
52.3095 5016.0
52.3439 5635.0
52.3784 8232.0
52.4129 16099.0
52.4473 57210.0
52.4818 392201.0
52.5163 381471.0
52.5507 57081.0
52.5852 39621.0
52.6197 187820.0
52.6541 196878.0
52.6886 35009.0
52.7231 10559.0
52.7575 6121.0
52.792 4259.0
52.8265 3164.0
52.8609 2608.0
52.8954 2122.0
52.9299 1805.0
52.9643 1616.0
52.9988 1343.0
53.0333 1152.0
53.0677 1076.0
53.1022 930.0
53.1367 877.0
53.1711 827.0
53.2056 755.0
53.2401 669.0
53.2745 653.0
53.309 595.0
53.3435 540.0
53.3779 555.0
53.4124 481.0
53.4469 482.0
53.4813 426.0
53.5158 385.0
53.5503 383.0
53.5847 343.0
53.6192 315.0
53.6537 295.0
53.6881 286.0
53.7226 235.0
53.7571 284.0
53.7915 229.0
53.826 231.0
53.8605 225.0
53.8949 184.0
53.9294 167.0
53.9639 186.0
53.9983 166.0
54.0328 185.0
54.0673 164.0
54.1017 132.0
54.1362 180.0
54.1707 161.0
54.2051 169.0
54.2396 175.0
54.2741 149.0
54.3085 158.0
54.343 124.0
54.3775 151.0
54.412 149.0
54.4464 150.0
54.4809 144.0
54.5154 122.0
54.5498 143.0
54.5843 142.0
54.6188 139.0
54.6532 142.0
54.6877 138.0
54.7222 131.0
54.7566 142.0
54.7911 132.0
54.8256 135.0
54.86 134.0
54.8945 138.0
54.929 119.0
54.9634 116.0
54.9979 121.0