Folder: DataAnalysis/data/W6907c/XRD_2ThetaOmega

Note: data/W6907c/XRD_2ThetaOmega/W6907c_peaks.TXT
No.	Label	Pos. [°2Th.]	FWHM Left [°2Th.]	Area [cts*°2Th.]	Backgr.[cts]	d-spacing [Å]	Height [cts]	Shape Left	Status	Integral Breadth [°2Th.]	FWHM Right [°2Th.]	Shape Right	Obs. Lorentz B [°2Th.]	Obs. Gauss B [°2Th.]	Instr. Lorentz B [°2Th.]	Instr. Gauss B [°2Th.]	Crystallite Size [Å]	Micro Strain [%]	Crystallite Size only [Å]	Micro Strain only [%]
1	Cr2O3 0 0 6	39,3983(4)	0,199(2)	514,88	130,65	2,28520	1888(12)	0,69(1)	Included	0,272780	 	 	0,198138	0,125727	0,073935	0,062635	754,866500	0,132854	467,925400	0,244184
2	Al2O3 0 0 6	41,61303(3)	0,05142(7)	4324,81	143,84	2,16855	70650(92)	0,328(2)	Included	0,061215	 	 	0,022301	0,045920	0,073977	0,062671	-1827,303000	-0,048973	29857,360000	0,003632

Note: README.md
# Methods
## RSM analysis

Check out [doc](documentation/RSM.md)

File: scan_2th-om_c_Cr2O3_35-45deg_PIXscan_4min_C8.xy
35.0021 110.0
35.0365 123.0
35.071 111.0
35.1055 99.0
35.1399 94.0
35.1744 121.0
35.2089 114.0
35.2433 115.0
35.2778 101.0
35.3123 139.0
35.3467 129.0
35.3812 108.0
35.4157 106.0
35.4501 110.0
35.4846 132.0
35.5191 105.0
35.5535 122.0
35.588 107.0
35.6225 121.0
35.6569 109.0
35.6914 134.0
35.7259 113.0
35.7603 109.0
35.7948 123.0
35.8293 130.0
35.8637 127.0
35.8982 114.0
35.9327 115.0
35.9671 120.0
36.0016 113.0
36.0361 125.0
36.0705 115.0
36.105 119.0
36.1395 122.0
36.1739 116.0
36.2084 109.0
36.2429 102.0
36.2773 110.0
36.3118 122.0
36.3463 112.0
36.3807 104.0
36.4152 102.0
36.4497 107.0
36.4841 103.0
36.5186 116.0
36.5531 111.0
36.5875 127.0
36.622 129.0
36.6565 117.0
36.6909 99.0
36.7254 112.0
36.7599 133.0
36.7943 124.0
36.8288 112.0
36.8633 105.0
36.8977 118.0
36.9322 114.0
36.9667 128.0
37.0011 126.0
37.0356 114.0
37.0701 103.0
37.1045 127.0
37.139 108.0
37.1735 116.0
37.2079 117.0
37.2424 133.0
37.2769 122.0
37.3114 140.0
37.3458 119.0
37.3803 110.0
37.4148 299.0
37.4492 295.0
37.4837 168.0
37.5182 144.0
37.5526 114.0
37.5871 123.0
37.6216 139.0
37.656 132.0
37.6905 141.0
37.725 119.0
37.7594 137.0
37.7939 115.0
37.8284 140.0
37.8628 120.0
37.8973 122.0
37.9318 122.0
37.9662 113.0
38.0007 124.0
38.0352 149.0
38.0696 109.0
38.1041 150.0
38.1386 160.0
38.173 138.0
38.2075 139.0
38.242 136.0
38.2764 125.0
38.3109 153.0
38.3454 143.0
38.3798 133.0
38.4143 139.0
38.4488 147.0
38.4832 151.0
38.5177 129.0
38.5522 158.0
38.5866 160.0
38.6211 124.0
38.6556 152.0
38.69 153.0
38.7245 158.0
38.759 160.0
38.7934 197.0
38.8279 184.0
38.8624 194.0
38.8968 218.0
38.9313 257.0
38.9658 226.0
39.0002 279.0
39.0347 225.0
39.0692 315.0
39.1036 363.0
39.1381 427.0
39.1726 489.0
39.207 491.0
39.2415 630.0
39.276 847.0
39.3104 1363.0
39.3449 1874.0
39.3794 2273.0
39.4138 2447.0
39.4483 2523.0
39.4828 2200.0
39.5172 1819.0
39.5517 1412.0
39.5862 973.0
39.6206 675.0
39.6551 524.0
39.6896 407.0
39.724 297.0
39.7585 275.0
39.793 208.0
39.8274 222.0
39.8619 162.0
39.8964 180.0
39.9308 168.0
39.9653 174.0
39.9998 175.0
40.0342 137.0
40.0687 120.0
40.1032 136.0
40.1376 131.0
40.1721 147.0
40.2066 133.0
40.241 133.0
40.2755 155.0
40.31 133.0
40.3444 138.0
40.3789 125.0
40.4134 141.0
40.4478 148.0
40.4823 160.0
40.5168 138.0
40.5512 164.0
40.5857 149.0
40.6202 149.0
40.6546 167.0
40.6891 168.0
40.7236 153.0
40.758 178.0
40.7925 165.0
40.827 169.0
40.8615 181.0
40.8959 176.0
40.9304 178.0
40.9649 183.0
40.9993 208.0
41.0338 202.0
41.0683 189.0
41.1027 169.0
41.1372 201.0
41.1717 287.0
41.2061 287.0
41.2406 300.0
41.2751 321.0
41.3095 352.0
41.344 456.0
41.3785 593.0
41.4129 803.0
41.4474 977.0
41.4819 1045.0
41.5163 1531.0
41.5508 3356.0
41.5853 39445.0
41.6197 65504.0
41.6542 13077.0
41.6887 15268.0
41.7231 32417.0
41.7576 9900.0
41.7921 1703.0
41.8265 966.0
41.861 649.0
41.8955 522.0
41.9299 416.0
41.9644 387.0
41.9989 337.0
42.0333 290.0
42.0678 217.0
42.1023 260.0
42.1367 190.0
42.1712 212.0
42.2057 191.0
42.2401 158.0
42.2746 188.0
42.3091 176.0
42.3435 162.0
42.378 179.0
42.4125 133.0
42.4469 141.0
42.4814 137.0
42.5159 140.0
42.5503 144.0
42.5848 158.0
42.6193 160.0
42.6537 140.0
42.6882 126.0
42.7227 124.0
42.7571 138.0
42.7916 130.0
42.8261 133.0
42.8605 129.0
42.895 113.0
42.9295 134.0
42.9639 126.0
42.9984 126.0
43.0329 120.0
43.0673 138.0
43.1018 126.0
43.1363 148.0
43.1707 129.0
43.2052 148.0
43.2397 138.0
43.2741 124.0
43.3086 126.0
43.3431 118.0
43.3775 137.0
43.412 111.0
43.4465 118.0
43.4809 126.0
43.5154 139.0
43.5499 149.0
43.5843 137.0
43.6188 136.0
43.6533 147.0
43.6877 136.0
43.7222 138.0
43.7567 142.0
43.7911 146.0
43.8256 148.0
43.8601 153.0
43.8945 142.0
43.929 162.0
43.9635 134.0
43.9979 154.0
44.0324 138.0
44.0669 157.0
44.1013 142.0
44.1358 158.0
44.1703 173.0
44.2047 210.0
44.2392 202.0
44.2737 197.0
44.3081 275.0
44.3426 307.0
44.3771 280.0
44.4116 287.0
44.446 277.0
44.4805 294.0
44.515 267.0
44.5494 238.0
44.5839 202.0
44.6184 197.0
44.6528 162.0
44.6873 161.0
44.7218 165.0
44.7562 152.0
44.7907 145.0
44.8252 161.0
44.8596 145.0
44.8941 130.0
44.9286 147.0
44.963 128.0
44.9975 118.0