Folder: DataAnalysis/data/W6907c/XRD_Omega

Note: data/W6907c/XRD_Omega/W6907c_omega_peaks.TXT
No.	Label	Pos. [記mega]	FWHM Left [記mega]	Area [cts*記mega]	Backgr.[cts]	d-spacing [魔	Height [cts]	Shape Left	Status	Integral Breadth [記mega]	FWHM Right [記mega]	Shape Right	Obs. Lorentz B [記mega]	Obs. Gauss B [記mega]	Instr. Lorentz B [記mega]	Instr. Gauss B [記mega]	Crystallite Size [魔	Micro Strain [%]	Crystallite Size only [魔	Micro Strain only [%]
1	Cr2O3 0 0 6	19,4081(2)	0,1287(6)	545,54	54,79	 	3376(15)	0,472(6)	Included	0,161600	 	 	0,082699	0,103459	0,075245	0,063741	12013,690000	0,207928	1037,939000	0,220143

Note: README.md
# Methods
## RSM analysis

Check out [doc](documentation/RSM.md)

File: scan_omega_4deg_step_0.005deg0_C8_3.xy
17.43870 58.0
17.45370 76.0
17.46870 66.0
17.48370 59.0
17.49870 74.0
17.51370 68.0
17.52870 48.0
17.54370 79.0
17.55870 74.0
17.57370 79.0
17.58870 65.0
17.60370 85.0
17.61870 61.0
17.63370 63.0
17.64870 64.0
17.66370 71.0
17.67870 82.0
17.69370 59.0
17.70870 67.0
17.72370 78.0
17.73870 51.0
17.75370 75.0
17.76870 67.0
17.78370 62.0
17.79870 63.0
17.81370 60.0
17.82870 71.0
17.84370 71.0
17.85870 55.0
17.87370 80.0
17.88870 64.0
17.90370 65.0
17.91870 63.0
17.93370 52.0
17.94870 66.0
17.96370 70.0
17.97870 65.0
17.99370 81.0
18.00870 72.0
18.02370 60.0
18.03870 61.0
18.05370 74.0
18.06870 66.0
18.08370 79.0
18.09870 82.0
18.11370 68.0
18.12870 61.0
18.14370 64.0
18.15870 77.0
18.17370 72.0
18.18870 65.0
18.20370 66.0
18.21870 87.0
18.23370 59.0
18.24870 66.0
18.26370 66.0
18.27870 65.0
18.29370 68.0
18.30870 60.0
18.32370 91.0
18.33870 80.0
18.35370 57.0
18.36870 71.0
18.38370 57.0
18.39870 71.0
18.41370 67.0
18.42870 72.0
18.44370 77.0
18.45870 70.0
18.47370 58.0
18.48870 65.0
18.50370 81.0
18.51870 59.0
18.53370 67.0
18.54870 67.0
18.56370 85.0
18.57870 55.0
18.59370 92.0
18.60870 85.0
18.62370 74.0
18.63870 78.0
18.65370 73.0
18.66870 89.0
18.68370 71.0
18.69870 62.0
18.71370 73.0
18.72870 75.0
18.74370 82.0
18.75870 65.0
18.77370 72.0
18.78870 96.0
18.80370 89.0
18.81870 80.0
18.83370 89.0
18.84870 78.0
18.86370 91.0
18.87870 78.0
18.89370 81.0
18.90870 78.0
18.92370 92.0
18.93870 85.0
18.95370 77.0
18.96870 95.0
18.98370 89.0
18.99870 102.0
19.01370 90.0
19.02870 105.0
19.04370 128.0
19.05870 94.0
19.07370 125.0
19.08870 127.0
19.10370 134.0
19.11870 127.0
19.13370 140.0
19.14870 149.0
19.16370 163.0
19.17870 171.0
19.19370 218.0
19.20870 226.0
19.22370 258.0
19.23870 266.0
19.25370 316.0
19.26870 390.0
19.28370 586.0
19.29870 956.0
19.31370 1101.0
19.32870 1472.0
19.34370 1933.0
19.35870 2471.0
19.37370 3387.0
19.38870 4005.0
19.40370 4623.0
19.41870 4978.0
19.43370 4619.0
19.44870 4228.0
19.46370 3664.0
19.47870 2889.0
19.49370 2487.0
19.50870 1847.0
19.52370 1476.0
19.53870 1110.0
19.55370 732.0
19.56870 521.0
19.58370 380.0
19.59870 351.0
19.61370 301.0
19.62870 226.0
19.64370 209.0
19.65870 180.0
19.67370 181.0
19.68870 175.0
19.70370 163.0
19.71870 137.0
19.73370 126.0
19.74870 121.0
19.76370 97.0
19.77870 108.0
19.79370 115.0
19.80870 83.0
19.82370 97.0
19.83870 109.0
19.85370 94.0
19.86870 85.0
19.88370 88.0
19.89870 95.0
19.91370 105.0
19.92870 76.0
19.94370 79.0
19.95870 80.0
19.97370 78.0
19.98870 65.0
20.00370 69.0
20.01870 85.0
20.03370 67.0
20.04870 74.0
20.06370 65.0
20.07870 69.0
20.09370 81.0
20.10870 67.0
20.12370 65.0
20.13870 63.0
20.15370 69.0
20.16870 60.0
20.18370 56.0
20.19870 76.0
20.21370 68.0
20.22870 67.0
20.24370 66.0
20.25870 65.0
20.27370 70.0
20.28870 67.0
20.30370 55.0
20.31870 58.0
20.33370 59.0
20.34870 65.0
20.36370 58.0
20.37870 58.0
20.39370 68.0
20.40870 71.0
20.42370 60.0
20.43870 87.0
20.45370 77.0
20.46870 70.0
20.48370 69.0
20.49870 49.0
20.51370 70.0
20.52870 84.0
20.54370 70.0
20.55870 57.0
20.57370 65.0
20.58870 64.0
20.60370 76.0
20.61870 62.0
20.63370 64.0
20.64870 57.0
20.66370 67.0
20.67870 70.0
20.69370 65.0
20.70870 64.0
20.72370 57.0
20.73870 60.0
20.75370 52.0
20.76870 82.0
20.78370 63.0
20.79870 59.0
20.81370 64.0
20.82870 58.0
20.84370 58.0
20.85870 45.0
20.87370 66.0
20.88870 69.0
20.90370 52.0
20.91870 71.0
20.93370 63.0
20.94870 64.0
20.96370 77.0
20.97870 46.0
20.99370 66.0
21.00870 58.0
21.02370 47.0
21.03870 59.0
21.05370 53.0
21.06870 52.0
21.08370 61.0
21.09870 66.0
21.11370 54.0
21.12870 62.0
21.14370 55.0
21.15870 60.0
21.17370 64.0
21.18870 48.0
21.20370 51.0
21.21870 63.0
21.23370 68.0
21.24870 58.0
21.26370 58.0
21.27870 59.0
21.29370 57.0
21.30870 60.0
21.32370 60.0
21.33870 69.0
21.35370 55.0
21.36870 55.0
21.38370 57.0
21.39870 52.0