Folder: DataAnalysis/data/W6778r/XRD_Omega

Note: data/W6778r/XRD_Omega/W6778r_omega_peaks.TXT
No.	Label	Pos. [記mega]	FWHM Left [記mega]	Area [cts*記mega]	Backgr.[cts]	d-spacing [魔	Height [cts]	Shape Left	Status	Integral Breadth [記mega]	FWHM Right [記mega]	Shape Right	Obs. Lorentz B [記mega]	Obs. Gauss B [記mega]	Instr. Lorentz B [記mega]	Instr. Gauss B [記mega]	Crystallite Size [魔	Micro Strain [%]	Crystallite Size only [魔	Micro Strain only [%]
1	Cr2O3 0 2 4	25,5843(6)	0,866(1)	1880,95	30,50	 	1890(4)	0,230(3)	Included	0,995225	 	 	0,258084	0,821235	0,074542	0,063147	493,165600	1,573530	96,364850	1,805111

Note: README.md
# Methods
## RSM analysis

Check out [doc](documentation/RSM.md)

File: scan_omega_4deg_step_0.005deg0_4.xy
23.60170 34.0
23.61670 53.0
23.63170 40.0
23.64670 36.0
23.66170 51.0
23.67670 47.0
23.69170 44.0
23.70670 35.0
23.72170 48.0
23.73670 25.0
23.75170 40.0
23.76670 37.0
23.78170 50.0
23.79670 39.0
23.81170 45.0
23.82670 40.0
23.84170 49.0
23.85670 41.0
23.87170 29.0
23.88670 53.0
23.90170 39.0
23.91670 49.0
23.93170 40.0
23.94670 43.0
23.96170 43.0
23.97670 44.0
23.99170 66.0
24.00670 53.0
24.02170 58.0
24.03670 37.0
24.05170 52.0
24.06670 47.0
24.08170 56.0
24.09670 49.0
24.11170 46.0
24.12670 67.0
24.14170 52.0
24.15670 66.0
24.17170 66.0
24.18670 59.0
24.20170 66.0
24.21670 73.0
24.23170 67.0
24.24670 78.0
24.26170 68.0
24.27670 72.0
24.29170 75.0
24.30670 77.0
24.32170 82.0
24.33670 86.0
24.35170 80.0
24.36670 114.0
24.38170 97.0
24.39670 88.0
24.41170 103.0
24.42670 108.0
24.44170 93.0
24.45670 118.0
24.47170 107.0
24.48670 112.0
24.50170 136.0
24.51670 107.0
24.53170 181.0
24.54670 175.0
24.56170 144.0
24.57670 146.0
24.59170 145.0
24.60670 182.0
24.62170 169.0
24.63670 193.0
24.65170 200.0
24.66670 203.0
24.68170 225.0
24.69670 254.0
24.71170 229.0
24.72670 257.0
24.74170 292.0
24.75670 266.0
24.77170 290.0
24.78670 284.0
24.80170 309.0
24.81670 346.0
24.83170 359.0
24.84670 411.0
24.86170 418.0
24.87670 434.0
24.89170 497.0
24.90670 546.0
24.92170 526.0
24.93670 605.0
24.95170 622.0
24.96670 687.0
24.98170 716.0
24.99670 722.0
25.01170 839.0
25.02670 829.0
25.04170 907.0
25.05670 950.0
25.07170 989.0
25.08670 983.0
25.10170 1090.0
25.11670 1188.0
25.13170 1294.0
25.14670 1397.0
25.16170 1442.0
25.17670 1449.0
25.19170 1580.0
25.20670 1616.0
25.22170 1710.0
25.23670 1760.0
25.25170 1859.0
25.26670 1933.0
25.28170 2083.0
25.29670 2029.0
25.31170 1998.0
25.32670 2220.0
25.34170 2245.0
25.35670 2408.0
25.37170 2447.0
25.38670 2456.0
25.40170 2694.0
25.41670 2539.0
25.43170 2691.0
25.44670 2703.0
25.46170 2789.0
25.47670 2760.0
25.49170 2807.0
25.50670 2892.0
25.52170 2838.0
25.53670 2928.0
25.55170 2863.0
25.56670 2958.0
25.58170 2841.0
25.59670 2917.0
25.61170 3022.0
25.62670 2886.0
25.64170 2823.0
25.65670 2859.0
25.67170 2829.0
25.68670 2752.0
25.70170 2782.0
25.71670 2661.0
25.73170 2699.0
25.74670 2649.0
25.76170 2620.0
25.77670 2482.0
25.79170 2479.0
25.80670 2302.0
25.82170 2279.0
25.83670 2279.0
25.85170 2172.0
25.86670 2108.0
25.88170 1944.0
25.89670 1938.0
25.91170 1866.0
25.92670 1723.0
25.94170 1749.0
25.95670 1650.0
25.97170 1585.0
25.98670 1570.0
26.00170 1528.0
26.01670 1425.0
26.03170 1371.0
26.04670 1344.0
26.06170 1239.0
26.07670 1226.0
26.09170 1139.0
26.10670 1079.0
26.12170 998.0
26.13670 1016.0
26.15170 924.0
26.16670 869.0
26.18170 885.0
26.19670 822.0
26.21170 790.0
26.22670 784.0
26.24170 711.0
26.25670 706.0
26.27170 655.0
26.28670 648.0
26.30170 610.0
26.31670 553.0
26.33170 558.0
26.34670 507.0
26.36170 470.0
26.37670 463.0
26.39170 437.0
26.40670 404.0
26.42170 433.0
26.43670 407.0
26.45170 368.0
26.46670 345.0
26.48170 333.0
26.49670 344.0
26.51170 281.0
26.52670 305.0
26.54170 273.0
26.55670 281.0
26.57170 239.0
26.58670 254.0
26.60170 246.0
26.61670 216.0
26.63170 239.0
26.64670 201.0
26.66170 193.0
26.67670 190.0
26.69170 197.0
26.70670 171.0
26.72170 156.0
26.73670 157.0
26.75170 150.0
26.76670 147.0
26.78170 139.0
26.79670 123.0
26.81170 120.0
26.82670 126.0
26.84170 127.0
26.85670 126.0
26.87170 113.0
26.88670 111.0
26.90170 100.0
26.91670 84.0
26.93170 105.0
26.94670 77.0
26.96170 93.0
26.97670 89.0
26.99170 88.0
27.00670 77.0
27.02170 109.0
27.03670 63.0
27.05170 81.0
27.06670 83.0
27.08170 91.0
27.09670 82.0
27.11170 86.0
27.12670 83.0
27.14170 69.0
27.15670 59.0
27.17170 64.0
27.18670 67.0
27.20170 73.0
27.21670 67.0
27.23170 57.0
27.24670 64.0
27.26170 64.0
27.27670 70.0
27.29170 46.0
27.30670 68.0
27.32170 64.0
27.33670 41.0
27.35170 48.0
27.36670 52.0
27.38170 49.0
27.39670 43.0
27.41170 62.0
27.42670 48.0
27.44170 41.0
27.45670 45.0
27.47170 52.0
27.48670 53.0
27.50170 48.0
27.51670 45.0
27.53170 42.0
27.54670 54.0
27.56170 27.0