Folder: DataAnalysis/data/W6778r/XRD_2ThetaOmega

Note: data/W6778r/XRD_2ThetaOmega/W6778r_peaks.TXT
No.	Label	Pos. [°2Th.]	FWHM Left [°2Th.]	Area calc.	Assignment	h	k	l	Multiplicity	F obs.	F calc.	Area [cts*°2Th.]	Derivation	Backgr.[cts]	d-spacing [Å]	Height [cts]	K-A2 / K-A1 Ratio	Matched	Matched by	Rel. Int. [%]	Source	Status	Integral Breadth [°2Th.]
1	Cr2O3 0 1 2	24,3085(2)	0,1600(7)	0,00	 	0	1	2	 	0,000000	0,000000	649,79	Pure KA1	33,32	3,65861	3048(15)	0,500	False	 	5,87	Profile fitting	Included	0,213159
2	Al2O3 0 1 2	25,52409(3)	0,04817(9)	0,00	 	0	1	2	 	0,000000	0,000000	2911,96	Pure KA1	41,50	3,48705	51949(78)	0,500	False	 	100,00	Profile fitting	Included	0,056054
3	Cr2O3 0 2 4	49,9138(7)	0,347(2)	0,00	 	0	2	4	 	0,000000	0,000000	350,03	Pure KA1	40,76	1,82563	838(9)	0,500	False	 	1,61	Profile fitting	Included	0,417580
4	Al2O3 0 2 4	52,50223(3)	0,0563(1)	0,00	 	0	2	4	 	0,000000	0,000000	3031,50	Pure KA1	419,05	1,74155	46128(73)	0,500	False	 	88,79	Profile fitting	Included	0,065719
5	Cr2O3 0 3 6	78,597(6)	0,64(2)	0,00	 	0	3	6	 	0,000000	0,000000	21,31	Pure KA1	14,63	1,21621	31(1)	0,500	False	 	0,06	Profile fitting	Included	0,678403
6	Al2O3 0 3 6	83,1774(2)	0,0687(5)	0,00	 	0	3	6	 	0,000000	0,000000	188,43	Pure KA1	16,47	1,16048	2203(14)	0,500	False	 	4,24	Profile fitting	Included	0,085521
7	Al2O3 0 4 8	124,5888(1)	0,1027(3)	0,00	 	0	4	8	 	0,000000	0,000000	1229,34	Pure KA1	23,58	0,87005	8574(25)	0,500	False	 	16,50	Profile fitting	Included	0,143385

Note: README.md
# Methods
## RSM analysis

Check out [doc](documentation/RSM.md)

File: W6778r_absolute_2th-om_10-130deg_PIXscan_17min_7.xy
10.0035 19.0
10.4072 27.0
10.811 23.0
11.2147 31.0
11.6185 25.0
12.0222 28.0
12.426 22.0
12.8298 22.0
13.2335 18.0
13.6373 21.0
14.041 24.0
14.4448 20.0
14.8485 17.0
15.2523 22.0
15.656 10.0
16.0598 14.0
16.4636 18.0
16.8673 32.0
17.2711 19.0
17.6748 28.0
18.0786 27.0
18.4823 14.0
18.8861 26.0
19.2899 23.0
19.6936 25.0
20.0974 16.0
20.5011 24.0
20.9049 25.0
21.3086 11.0
21.7124 22.0
22.1161 13.0
22.5199 25.0
22.9237 21.0
23.3274 49.0
23.7312 43.0
24.1349 401.0
24.5387 654.0
24.9424 118.0
25.3462 302.0
25.75 363.0
26.1537 72.0
26.5575 31.0
26.9612 31.0
27.365 24.0
27.7687 22.0
28.1725 18.0
28.5762 18.0
28.98 8.0
29.3838 11.0
29.7875 17.0
30.1913 18.0
30.595 17.0
30.9988 15.0
31.4025 11.0
31.8063 21.0
32.2101 11.0
32.6138 11.0
33.0176 16.0
33.4213 11.0
33.8251 9.0
34.2288 11.0
34.6326 11.0
35.0363 13.0
35.4401 17.0
35.8439 16.0
36.2476 18.0
36.6514 17.0
37.0551 10.0
37.4589 15.0
37.8626 11.0
38.2664 10.0
38.6702 13.0
39.0739 11.0
39.4777 14.0
39.8814 7.0
40.2852 13.0
40.6889 10.0
41.0927 13.0
41.4964 17.0
41.9002 20.0
42.304 8.0
42.7077 16.0
43.1115 16.0
43.5152 23.0
43.919 20.0
44.3227 35.0
44.7265 20.0
45.1303 10.0
45.534 25.0
45.9378 7.0
46.3415 9.0
46.7453 13.0
47.149 70.0
47.5528 21.0
47.9565 19.0
48.3603 17.0
48.7641 19.0
49.1678 20.0
49.5716 113.0
49.9753 1084.0
50.3791 140.0
50.7828 37.0
51.1866 37.0
51.5903 58.0
51.9941 93.0
52.3979 1031.0
52.8016 456.0
53.2054 106.0
53.6091 54.0
54.0129 36.0
54.4166 25.0
54.8204 24.0
55.2242 16.0
55.6279 18.0
56.0317 22.0
56.4354 20.0
56.8392 26.0
57.2429 21.0
57.6467 20.0
58.0504 14.0
58.4542 14.0
58.858 16.0
59.2617 15.0
59.6655 14.0
60.0692 15.0
60.473 7.0
60.8767 12.0
61.2805 14.0
61.6843 11.0
62.088 21.0
62.4918 18.0
62.8955 18.0
63.2993 10.0
63.703 14.0
64.1068 16.0
64.5105 14.0
64.9143 14.0
65.3181 11.0
65.7218 12.0
66.1256 20.0
66.5293 13.0
66.9331 13.0
67.3368 12.0
67.7406 10.0
68.1444 12.0
68.5481 13.0
68.9519 7.0
69.3556 10.0
69.7594 16.0
70.1631 9.0
70.5669 12.0
70.9706 17.0
71.3744 14.0
71.7782 10.0
72.1819 16.0
72.5857 11.0
72.9894 18.0
73.3932 19.0
73.7969 17.0
74.2007 11.0
74.6045 17.0
75.0082 19.0
75.412 12.0
75.8157 16.0
76.2195 18.0
76.6232 6.0
77.027 13.0
77.4307 19.0
77.8345 7.0
78.2383 23.0
78.642 59.0
79.0458 31.0
79.4495 16.0
79.8533 20.0
80.257 13.0
80.6608 8.0
81.0646 18.0
81.4683 14.0
81.8721 13.0
82.2758 13.0
82.6796 20.0
83.0833 108.0
83.4871 266.0
83.8908 22.0
84.2946 17.0
84.6984 14.0
85.1021 14.0
85.5059 9.0
85.9096 14.0
86.3134 14.0
86.7171 9.0
87.1209 20.0
87.5247 9.0
87.9284 8.0
88.3322 2.0
88.7359 20.0
89.1397 21.0
89.5434 13.0
89.9472 12.0
90.3509 20.0
90.7547 20.0
91.1585 10.0
91.5622 18.0
91.966 10.0
92.3697 13.0
92.7735 11.0
93.1772 12.0
93.581 16.0
93.9848 14.0
94.3885 17.0
94.7923 15.0
95.196 9.0
95.5998 12.0
96.0035 11.0
96.4073 13.0
96.811 14.0
97.2148 17.0
97.6186 14.0
98.0223 17.0
98.4261 17.0
98.8298 17.0
99.2336 13.0
99.6373 16.0
100.041 14.0
100.445 15.0
100.849 15.0
101.252 13.0
101.656 6.0
102.06 7.0
102.464 11.0
102.867 16.0
103.271 15.0
103.675 21.0
104.079 18.0
104.482 13.0
104.886 15.0
105.29 17.0
105.694 12.0
106.097 21.0
106.501 12.0
106.905 15.0
107.309 18.0
107.712 14.0
108.116 20.0
108.52 16.0
108.924 13.0
109.327 14.0
109.731 21.0
110.135 7.0
110.539 15.0
110.943 16.0
111.346 10.0
111.75 16.0
112.154 15.0
112.558 13.0
112.961 14.0
113.365 11.0
113.769 6.0
114.173 16.0
114.576 16.0
114.98 16.0
115.384 11.0
115.788 17.0
116.191 24.0
116.595 21.0
116.999 7.0
117.403 26.0
117.806 14.0
118.21 15.0
118.614 12.0
119.018 11.0
119.421 21.0
119.825 24.0
120.229 14.0
120.633 12.0
121.036 20.0
121.44 17.0
121.844 21.0
122.248 27.0
122.651 22.0
123.055 18.0
123.459 38.0
123.863 69.0
124.266 118.0
124.67 2305.0
125.074 1898.0
125.478 85.0
125.881 39.0
126.285 34.0
126.689 34.0
127.093 18.0
127.497 18.0
127.9 16.0
128.304 22.0
128.708 25.0
129.112 19.0
129.515 20.0
129.919 17.0
129.998 19.0