Folder: DataAnalysis/data/W6959c/XRD_2ThetaOmega

Note: README.md
# Methods
## RSM analysis

Check out [doc](documentation/RSM.md)

File: c_scan_2th-om_10-130deg_PIXscan_17min_C2.xy
10.0035 43.0
10.4072 56.0
10.811 50.0
11.2147 45.0
11.6185 42.0
12.0222 38.0
12.426 43.0
12.8298 44.0
13.2335 38.0
13.6373 46.0
14.041 42.0
14.4448 48.0
14.8485 42.0
15.2523 38.0
15.656 41.0
16.0598 34.0
16.4636 24.0
16.8673 31.0
17.2711 37.0
17.6748 30.0
18.0786 33.0
18.4823 44.0
18.8861 34.0
19.2899 28.0
19.6936 38.0
20.0974 29.0
20.5011 30.0
20.9049 27.0
21.3086 34.0
21.7124 35.0
22.1161 23.0
22.5199 27.0
22.9237 19.0
23.3274 30.0
23.7312 39.0
24.1349 26.0
24.5387 23.0
24.9424 18.0
25.3462 23.0
25.75 34.0
26.1537 22.0
26.5575 26.0
26.9612 26.0
27.365 17.0
27.7687 20.0
28.1725 19.0
28.5762 27.0
28.98 19.0
29.3838 32.0
29.7875 31.0
30.1913 35.0
30.595 19.0
30.9988 19.0
31.4025 33.0
31.8063 33.0
32.2101 30.0
32.6138 31.0
33.0176 20.0
33.4213 26.0
33.8251 25.0
34.2288 21.0
34.6326 25.0
35.0363 27.0
35.4401 25.0
35.8439 16.0
36.2476 29.0
36.6514 28.0
37.0551 30.0
37.4589 58.0
37.8626 28.0
38.2664 36.0
38.6702 33.0
39.0739 66.0
39.4777 871.0
39.8814 318.0
40.2852 1052.0
40.6889 45.0
41.0927 49.0
41.4964 149.0
41.9002 87.0
42.304 35.0
42.7077 29.0
43.1115 32.0
43.5152 29.0
43.919 38.0
44.3227 51.0
44.7265 34.0
45.1303 27.0
45.534 26.0
45.9378 24.0
46.3415 24.0
46.7453 35.0
47.149 29.0
47.5528 22.0
47.9565 24.0
48.3603 32.0
48.7641 26.0
49.1678 24.0
49.5716 29.0
49.9753 30.0
50.3791 23.0
50.7828 19.0
51.1866 35.0
51.5903 29.0
51.9941 38.0
52.3979 33.0
52.8016 32.0
53.2054 30.0
53.6091 31.0
54.0129 37.0
54.4166 30.0
54.8204 27.0
55.2242 25.0
55.6279 25.0
56.0317 22.0
56.4354 24.0
56.8392 32.0
57.2429 27.0
57.6467 22.0
58.0504 29.0
58.4542 31.0
58.858 27.0
59.2617 37.0
59.6655 32.0
60.0692 32.0
60.473 26.0
60.8767 28.0
61.2805 32.0
61.6843 24.0
62.088 32.0
62.4918 35.0
62.8955 38.0
63.2993 25.0
63.703 33.0
64.1068 29.0
64.5105 33.0
64.9143 29.0
65.3181 35.0
65.7218 29.0
66.1256 32.0
66.5293 28.0
66.9331 29.0
67.3368 21.0
67.7406 25.0
68.1444 31.0
68.5481 25.0
68.9519 24.0
69.3556 22.0
69.7594 38.0
70.1631 25.0
70.5669 21.0
70.9706 26.0
71.3744 23.0
71.7782 36.0
72.1819 25.0
72.5857 29.0
72.9894 28.0
73.3932 40.0
73.7969 26.0
74.2007 23.0
74.6045 27.0
75.0082 22.0
75.412 24.0
75.8157 22.0
76.2195 21.0
76.6232 27.0
77.027 33.0
77.4307 35.0
77.8345 31.0
78.2383 22.0
78.642 29.0
79.0458 16.0
79.4495 35.0
79.8533 32.0
80.257 31.0
80.6608 34.0
81.0646 36.0
81.4683 34.0
81.8721 35.0
82.2758 35.0
82.6796 21.0
83.0833 34.0
83.4871 37.0
83.8908 34.0
84.2946 40.0
84.6984 56.0
85.1021 178.0
85.5059 246.0
85.9096 89.0
86.3134 49.0
86.7171 70.0
87.1209 36.0
87.5247 36.0
87.9284 32.0
88.3322 33.0
88.7359 40.0
89.1397 42.0
89.5434 55.0
89.9472 68.0
90.3509 132.0
90.7547 2567.0
91.1585 216.0
91.5622 50.0
91.966 45.0
92.3697 48.0
92.7735 50.0
93.1772 44.0
93.581 38.0
93.9848 33.0
94.3885 41.0
94.7923 32.0
95.196 31.0
95.5998 33.0
96.0035 33.0
96.4073 29.0
96.811 32.0
97.2148 34.0
97.6186 32.0
98.0223 35.0
98.4261 39.0
98.8298 37.0
99.2336 39.0
99.6373 26.0
100.041 29.0
100.445 35.0
100.849 35.0
101.252 29.0
101.656 32.0
102.06 29.0
102.464 33.0
102.867 35.0
103.271 32.0
103.675 34.0
104.079 24.0
104.482 38.0
104.886 31.0
105.29 31.0
105.694 35.0
106.097 33.0
106.501 38.0
106.905 41.0
107.309 35.0
107.712 30.0
108.116 33.0
108.52 36.0
108.924 38.0
109.327 29.0
109.731 31.0
110.135 28.0
110.539 28.0
110.943 22.0
111.346 28.0
111.75 29.0
112.154 30.0
112.558 35.0
112.961 28.0
113.365 30.0
113.769 28.0
114.173 42.0
114.576 29.0
114.98 31.0
115.384 39.0
115.788 29.0
116.191 31.0
116.595 33.0
116.999 36.0
117.403 32.0
117.806 24.0
118.21 33.0
118.614 23.0
119.018 29.0
119.421 35.0
119.825 22.0
120.229 31.0
120.633 29.0
121.036 39.0
121.44 31.0
121.844 32.0
122.248 36.0
122.651 31.0
123.055 28.0
123.459 30.0
123.863 36.0
124.266 29.0
124.67 36.0
125.074 33.0
125.478 36.0
125.881 36.0
126.285 38.0
126.689 26.0
127.093 29.0
127.497 34.0
127.9 36.0
128.304 40.0
128.708 38.0
129.112 33.0
129.515 45.0
129.919 30.0
129.998 30.0