Folder: DataAnalysis/data/W6776c/XRD_Omega

Note: data/W6776c/XRD_Omega/W6776c_omega_peaks.TXT
No.	Label	Pos. [記mega]	FWHM Left [記mega]	Area [cts*記mega]	Backgr.[cts]	d-spacing [魔	Height [cts]	Shape Left	Status	Integral Breadth [記mega]	FWHM Right [記mega]	Shape Right	Obs. Lorentz B [記mega]	Obs. Gauss B [記mega]	Instr. Lorentz B [記mega]	Instr. Gauss B [記mega]	Crystallite Size [魔	Micro Strain [%]	Crystallite Size only [魔	Micro Strain only [%]
1	Cr2O3 0 0 6	19,57236(8)	0,1196(5)	3438,62	463,90	 	18303(34)	1,000(4)	Included	0,187875	 	 	0,186994	0,003173	0,075223	0,063723	801,402400	-0,161002	800,761900	0,282976

Note: README.md
# Methods
## RSM analysis

Check out [doc](documentation/RSM.md)

File: W6776c_Cr2O3_scan_omega_2deg_step_0.002deg0_7.xy
18.59480 599.0
18.60280 591.0
18.61080 543.0
18.61880 576.0
18.62680 580.0
18.63480 556.0
18.64280 534.0
18.65080 558.0
18.65880 554.0
18.66680 587.0
18.67480 578.0
18.68280 611.0
18.69080 553.0
18.69880 556.0
18.70680 529.0
18.71480 575.0
18.72280 582.0
18.73080 573.0
18.73880 565.0
18.74680 607.0
18.75480 573.0
18.76280 609.0
18.77080 617.0
18.77880 578.0
18.78680 595.0
18.79480 620.0
18.80280 575.0
18.81080 644.0
18.81880 586.0
18.82680 625.0
18.83480 653.0
18.84280 610.0
18.85080 590.0
18.85880 609.0
18.86680 621.0
18.87480 615.0
18.88280 631.0
18.89080 624.0
18.89880 623.0
18.90680 608.0
18.91480 631.0
18.92280 666.0
18.93080 660.0
18.93880 636.0
18.94680 696.0
18.95480 652.0
18.96280 692.0
18.97080 627.0
18.97880 705.0
18.98680 739.0
18.99480 758.0
19.00280 732.0
19.01080 793.0
19.01880 803.0
19.02680 783.0
19.03480 822.0
19.04280 825.0
19.05080 760.0
19.05880 798.0
19.06680 836.0
19.07480 829.0
19.08280 900.0
19.09080 917.0
19.09880 878.0
19.10680 895.0
19.11480 963.0
19.12280 939.0
19.13080 974.0
19.13880 971.0
19.14680 993.0
19.15480 1008.0
19.16280 1007.0
19.17080 1088.0
19.17880 1087.0
19.18680 1163.0
19.19480 1108.0
19.20280 1148.0
19.21080 1251.0
19.21880 1196.0
19.22680 1180.0
19.23480 1361.0
19.24280 1325.0
19.25080 1362.0
19.25880 1374.0
19.26680 1476.0
19.27480 1536.0
19.28280 1572.0
19.29080 1656.0
19.29880 1725.0
19.30680 1687.0
19.31480 1802.0
19.32280 1862.0
19.33080 2000.0
19.33880 2093.0
19.34680 2225.0
19.35480 2232.0
19.36280 2335.0
19.37080 2563.0
19.37880 2568.0
19.38680 2678.0
19.39480 2940.0
19.40280 3286.0
19.41080 3428.0
19.41880 3693.0
19.42680 3848.0
19.43480 4248.0
19.44280 4537.0
19.45080 5064.0
19.45880 5465.0
19.46680 6129.0
19.47480 6715.0
19.48280 7554.0
19.49080 8260.0
19.49880 9303.0
19.50680 10703.0
19.51480 12173.0
19.52280 13860.0
19.53080 15496.0
19.53880 17290.0
19.54680 19393.0
19.55480 21020.0
19.56280 22876.0
19.57080 24473.0
19.57880 24770.0
19.58680 24427.0
19.59480 24022.0
19.60280 22876.0
19.61080 22163.0
19.61880 20915.0
19.62680 19742.0
19.63480 17868.0
19.64280 16309.0
19.65080 14557.0
19.65880 13103.0
19.66680 11699.0
19.67480 10168.0
19.68280 9043.0
19.69080 8007.0
19.69880 7079.0
19.70680 6586.0
19.71480 5717.0
19.72280 5347.0
19.73080 4870.0
19.73880 4443.0
19.74680 4007.0
19.75480 3734.0
19.76280 3433.0
19.77080 3212.0
19.77880 3082.0
19.78680 2779.0
19.79480 2600.0
19.80280 2556.0
19.81080 2347.0
19.81880 2142.0
19.82680 2128.0
19.83480 1983.0
19.84280 1926.0
19.85080 1826.0
19.85880 1726.0
19.86680 1650.0
19.87480 1587.0
19.88280 1516.0
19.89080 1440.0
19.89880 1383.0
19.90680 1421.0
19.91480 1340.0
19.92280 1269.0
19.93080 1270.0
19.93880 1194.0
19.94680 1185.0
19.95480 1146.0
19.96280 1080.0
19.97080 1076.0
19.97880 1040.0
19.98680 975.0
19.99480 1006.0
20.00280 986.0
20.01080 970.0
20.01880 946.0
20.02680 941.0
20.03480 874.0
20.04280 880.0
20.05080 869.0
20.05880 868.0
20.06680 859.0
20.07480 851.0
20.08280 788.0
20.09080 803.0
20.09880 805.0
20.10680 823.0
20.11480 729.0
20.12280 791.0
20.13080 765.0
20.13880 713.0
20.14680 722.0
20.15480 781.0
20.16280 734.0
20.17080 745.0
20.17880 743.0
20.18680 719.0
20.19480 730.0
20.20280 684.0
20.21080 712.0
20.21880 697.0
20.22680 707.0
20.23480 693.0
20.24280 705.0
20.25080 641.0
20.25880 641.0
20.26680 617.0
20.27480 613.0
20.28280 608.0
20.29080 581.0
20.29880 561.0
20.30680 595.0
20.31480 572.0
20.32280 588.0
20.33080 536.0
20.33880 558.0
20.34680 516.0
20.35480 530.0
20.36280 552.0
20.37080 605.0
20.37880 573.0
20.38680 564.0
20.39480 581.0
20.40280 520.0
20.41080 562.0
20.41880 530.0
20.42680 552.0
20.43480 551.0
20.44280 586.0
20.45080 526.0
20.45880 517.0
20.46680 556.0
20.47480 511.0
20.48280 520.0
20.49080 503.0
20.49880 537.0
20.50680 555.0
20.51480 531.0
20.52280 514.0
20.53080 562.0
20.53880 528.0
20.54680 514.0
20.55480 499.0
20.56280 533.0
20.57080 491.0
20.57880 524.0