Folder: DataAnalysis/data/W6907a/XRD_2ThetaOmega

Note: data/W6907a/XRD_2ThetaOmega/W6907a_peaks.TXT
No.	Label	Pos. [°2Th.]	FWHM Left [°2Th.]	Area [cts*°2Th.]	Backgr.[cts]	d-spacing [Å]	Height [cts]	Shape Left	Status	Integral Breadth [°2Th.]	FWHM Right [°2Th.]	Shape Right	Obs. Lorentz B [°2Th.]	Obs. Gauss B [°2Th.]	Instr. Lorentz B [°2Th.]	Instr. Gauss B [°2Th.]	Crystallite Size [Å]	Micro Strain [%]	Crystallite Size only [Å]	Micro Strain only [%]
1	Cr2O3 1 1 0	36,1013(2)	0,1929(6)	1345,10	204,25	2,48598	5690(17)	0,408(5)	Included	0,236417	 	 	0,105672	0,162972	0,073948	0,062646	2926,443000	0,201433	542,174000	0,229260
2	Al2O3 1 1 0	37,66455(1)	0,04714(3)	18454,07	224,04	2,38631	325239(201)	0,3589(8)	Included	0,056740	 	 	0,022482	0,041243	0,073931	0,062631	-1812,725000	-0,060302	29488,830000	0,004046

Note: README.md
# Methods
## RSM analysis

Check out [doc](documentation/RSM.md)

File: scan_2th-om_a_Cr2O3_30-40deg_PIXscan_4min_8.xy
30.0025 86.0
30.0369 78.0
30.0714 103.0
30.1059 89.0
30.1403 99.0
30.1748 102.0
30.2093 79.0
30.2437 88.0
30.2782 91.0
30.3127 102.0
30.3471 96.0
30.3816 90.0
30.4161 81.0
30.4505 93.0
30.485 96.0
30.5195 86.0
30.5539 90.0
30.5884 98.0
30.6229 81.0
30.6573 100.0
30.6918 102.0
30.7263 89.0
30.7607 76.0
30.7952 89.0
30.8297 78.0
30.8641 99.0
30.8986 79.0
30.9331 96.0
30.9675 86.0
31.002 71.0
31.0365 76.0
31.0709 94.0
31.1054 79.0
31.1399 80.0
31.1743 109.0
31.2088 67.0
31.2433 83.0
31.2777 92.0
31.3122 81.0
31.3467 71.0
31.3811 64.0
31.4156 89.0
31.4501 92.0
31.4845 78.0
31.519 101.0
31.5535 82.0
31.5879 102.0
31.6224 85.0
31.6569 90.0
31.6913 78.0
31.7258 103.0
31.7603 80.0
31.7947 78.0
31.8292 88.0
31.8637 79.0
31.8981 92.0
31.9326 83.0
31.9671 97.0
32.0015 106.0
32.036 87.0
32.0705 107.0
32.1049 91.0
32.1394 102.0
32.1739 83.0
32.2083 83.0
32.2428 101.0
32.2773 91.0
32.3118 104.0
32.3462 89.0
32.3807 102.0
32.4152 101.0
32.4496 99.0
32.4841 128.0
32.5186 134.0
32.553 136.0
32.5875 90.0
32.622 99.0
32.6564 102.0
32.6909 113.0
32.7254 114.0
32.7598 80.0
32.7943 90.0
32.8288 92.0
32.8632 79.0
32.8977 101.0
32.9322 74.0
32.9666 90.0
33.0011 86.0
33.0356 92.0
33.07 82.0
33.1045 100.0
33.139 81.0
33.1734 109.0
33.2079 86.0
33.2424 95.0
33.2768 126.0
33.3113 89.0
33.3458 95.0
33.3802 98.0
33.4147 108.0
33.4492 95.0
33.4836 85.0
33.5181 97.0
33.5526 95.0
33.587 90.0
33.6215 105.0
33.656 100.0
33.6904 97.0
33.7249 109.0
33.7594 111.0
33.7938 109.0
33.8283 128.0
33.8628 315.0
33.8972 1218.0
33.9317 971.0
33.9662 297.0
34.0006 140.0
34.0351 127.0
34.0696 140.0
34.104 117.0
34.1385 127.0
34.173 101.0
34.2074 103.0
34.2419 116.0
34.2764 94.0
34.3108 128.0
34.3453 100.0
34.3798 119.0
34.4142 131.0
34.4487 118.0
34.4832 98.0
34.5176 96.0
34.5521 105.0
34.5866 102.0
34.621 116.0
34.6555 92.0
34.69 113.0
34.7244 102.0
34.7589 106.0
34.7934 131.0
34.8278 124.0
34.8623 111.0
34.8968 108.0
34.9312 129.0
34.9657 113.0
35.0002 116.0
35.0346 147.0
35.0691 143.0
35.1036 123.0
35.138 136.0
35.1725 136.0
35.207 130.0
35.2414 132.0
35.2759 137.0
35.3104 149.0
35.3448 141.0
35.3793 158.0
35.4138 157.0
35.4482 147.0
35.4827 168.0
35.5172 187.0
35.5516 160.0
35.5861 229.0
35.6206 208.0
35.655 240.0
35.6895 273.0
35.724 283.0
35.7584 328.0
35.7929 460.0
35.8274 515.0
35.8619 658.0
35.8963 778.0
35.9308 1147.0
35.9653 1989.0
35.9997 3238.0
36.0342 4828.0
36.0687 6444.0
36.1031 7452.0
36.1376 7519.0
36.1721 6772.0
36.2065 5521.0
36.241 3774.0
36.2755 2639.0
36.3099 1803.0
36.3444 1185.0
36.3789 872.0
36.4133 657.0
36.4478 597.0
36.4823 488.0
36.5167 461.0
36.5512 444.0
36.5857 420.0
36.6201 405.0
36.6546 376.0
36.6891 390.0
36.7235 336.0
36.758 398.0
36.7925 359.0
36.8269 392.0
36.8614 357.0
36.8959 404.0
36.9303 397.0
36.9648 457.0
36.9993 469.0
37.0337 487.0
37.0682 489.0
37.1027 513.0
37.1371 584.0
37.1716 608.0
37.2061 645.0
37.2405 663.0
37.275 823.0
37.3095 821.0
37.3439 956.0
37.3784 1130.0
37.4129 1307.0
37.4473 2031.0
37.4818 3448.0
37.5163 4050.0
37.5507 4481.0
37.5852 7529.0
37.6197 33318.0
37.6541 279924.0
37.6886 178696.0
37.7231 40532.0
37.7575 153913.0
37.792 68745.0
37.8265 8053.0
37.8609 4226.0
37.8954 2701.0
37.9299 2093.0
37.9643 1684.0
37.9988 1418.0
38.0333 1207.0
38.0677 1064.0
38.1022 962.0
38.1367 839.0
38.1711 797.0
38.2056 696.0
38.2401 597.0
38.2745 589.0
38.309 483.0
38.3435 448.0
38.3779 427.0
38.4124 401.0
38.4469 353.0
38.4813 328.0
38.5158 257.0
38.5503 283.0
38.5847 225.0
38.6192 211.0
38.6537 177.0
38.6881 204.0
38.7226 174.0
38.7571 188.0
38.7915 170.0
38.826 162.0
38.8605 157.0
38.8949 151.0
38.9294 142.0
38.9639 136.0
38.9983 126.0
39.0328 110.0
39.0673 140.0
39.1017 127.0
39.1362 130.0
39.1707 130.0
39.2051 118.0
39.2396 131.0
39.2741 113.0
39.3085 125.0
39.343 126.0
39.3775 128.0
39.412 131.0
39.4464 108.0
39.4809 99.0
39.5154 112.0
39.5498 126.0
39.5843 121.0
39.6188 103.0
39.6532 114.0
39.6877 111.0
39.7222 115.0
39.7566 115.0
39.7911 110.0
39.8256 110.0
39.86 114.0
39.8945 115.0
39.929 93.0
39.9634 118.0
39.9979 117.0