Folder: DataAnalysis/data/W6907a/XRD_Omega

Note: data/W6907a/XRD_Omega/W6907a_omega_peaks.TXT
No.	Label	Pos. [記mega]	FWHM Left [記mega]	Area [cts*記mega]	Backgr.[cts]	d-spacing [魔	Height [cts]	Shape Left	Status	Integral Breadth [記mega]	FWHM Right [記mega]	Shape Right	Obs. Lorentz B [記mega]	Obs. Gauss B [記mega]	Instr. Lorentz B [記mega]	Instr. Gauss B [記mega]	Crystallite Size [魔	Micro Strain [%]	Crystallite Size only [魔	Micro Strain only [%]
1	Cr2O3 1 1 0	17,658(1)	1,324(6)	2178,85	245,05	 	1048(3)	1,000(7)	Included	2,079477	 	 	2,069720	0,035118	0,075488	0,063947	44,793310	-0,150121	44,793200	5,602066

Note: README.md
# Methods
## RSM analysis

Check out [doc](documentation/RSM.md)

File: scan_omega_4deg_step_0.005deg0_C8_1.xy
15.70640 374.0
15.72140 380.0
15.73640 360.0
15.75140 376.0
15.76640 359.0
15.78140 378.0
15.79640 405.0
15.81140 406.0
15.82640 398.0
15.84140 423.0
15.85640 434.0
15.87140 381.0
15.88640 447.0
15.90140 408.0
15.91640 453.0
15.93140 447.0
15.94640 448.0
15.96140 479.0
15.97640 480.0
15.99140 449.0
16.00640 497.0
16.02140 478.0
16.03640 477.0
16.05140 461.0
16.06640 513.0
16.08140 536.0
16.09640 505.0
16.11140 550.0
16.12640 504.0
16.14140 526.0
16.15640 565.0
16.17140 522.0
16.18640 549.0
16.20140 607.0
16.21640 586.0
16.23140 599.0
16.24640 610.0
16.26140 615.0
16.27640 605.0
16.29140 614.0
16.30640 646.0
16.32140 590.0
16.33640 634.0
16.35140 655.0
16.36640 614.0
16.38140 643.0
16.39640 647.0
16.41140 715.0
16.42640 705.0
16.44140 714.0
16.45640 708.0
16.47140 722.0
16.48640 729.0
16.50140 740.0
16.51640 778.0
16.53140 740.0
16.54640 714.0
16.56140 721.0
16.57640 770.0
16.59140 761.0
16.60640 826.0
16.62140 802.0
16.63640 812.0
16.65140 845.0
16.66640 840.0
16.68140 872.0
16.69640 821.0
16.71140 942.0
16.72640 833.0
16.74140 910.0
16.75640 839.0
16.77140 844.0
16.78640 923.0
16.80140 889.0
16.81640 892.0
16.83140 942.0
16.84640 969.0
16.86140 956.0
16.87640 934.0
16.89140 945.0
16.90640 977.0
16.92140 1006.0
16.93640 946.0
16.95140 1003.0
16.96640 1076.0
16.98140 1039.0
16.99640 1079.0
17.01140 1105.0
17.02640 1014.0
17.04140 1111.0
17.05640 1073.0
17.07140 1077.0
17.08640 1037.0
17.10140 1122.0
17.11640 1145.0
17.13140 1125.0
17.14640 1132.0
17.16140 1179.0
17.17640 1218.0
17.19140 1241.0
17.20640 1170.0
17.22140 1283.0
17.23640 1229.0
17.25140 1336.0
17.26640 1273.0
17.28140 1296.0
17.29640 1308.0
17.31140 1293.0
17.32640 1322.0
17.34140 1347.0
17.35640 1355.0
17.37140 1362.0
17.38640 1316.0
17.40140 1392.0
17.41640 1464.0
17.43140 1431.0
17.44640 1456.0
17.46140 1447.0
17.47640 1594.0
17.49140 1515.0
17.50640 1556.0
17.52140 1532.0
17.53640 1656.0
17.55140 1636.0
17.56640 1793.0
17.58140 1771.0
17.59640 1812.0
17.61140 1914.0
17.62640 2170.0
17.64140 2414.0
17.65640 2814.0
17.67140 2833.0
17.68640 2902.0
17.70140 2641.0
17.71640 2629.0
17.73140 2387.0
17.74640 2246.0
17.76140 2113.0
17.77640 2007.0
17.79140 2040.0
17.80640 1851.0
17.82140 1817.0
17.83640 1699.0
17.85140 1521.0
17.86640 1521.0
17.88140 1511.0
17.89640 1461.0
17.91140 1501.0
17.92640 1437.0
17.94140 1461.0
17.95640 1385.0
17.97140 1366.0
17.98640 1397.0
18.00140 1392.0
18.01640 1305.0
18.03140 1239.0
18.04640 1300.0
18.06140 1284.0
18.07640 1250.0
18.09140 1273.0
18.10640 1265.0
18.12140 1203.0
18.13640 1215.0
18.15140 1117.0
18.16640 1161.0
18.18140 1199.0
18.19640 1120.0
18.21140 1115.0
18.22640 1134.0
18.24140 1079.0
18.25640 1101.0
18.27140 1054.0
18.28640 1039.0
18.30140 1018.0
18.31640 1004.0
18.33140 956.0
18.34640 998.0
18.36140 1003.0
18.37640 997.0
18.39140 1020.0
18.40640 943.0
18.42140 979.0
18.43640 922.0
18.45140 892.0
18.46640 993.0
18.48140 874.0
18.49640 873.0
18.51140 872.0
18.52640 891.0
18.54140 906.0
18.55640 845.0
18.57140 839.0
18.58640 825.0
18.60140 809.0
18.61640 765.0
18.63140 829.0
18.64640 753.0
18.66140 739.0
18.67640 757.0
18.69140 729.0
18.70640 735.0
18.72140 781.0
18.73640 713.0
18.75140 705.0
18.76640 716.0
18.78140 729.0
18.79640 694.0
18.81140 624.0
18.82640 635.0
18.84140 653.0
18.85640 660.0
18.87140 640.0
18.88640 633.0
18.90140 630.0
18.91640 633.0
18.93140 644.0
18.94640 562.0
18.96140 560.0
18.97640 611.0
18.99140 611.0
19.00640 662.0
19.02140 555.0
19.03640 550.0
19.05140 582.0
19.06640 527.0
19.08140 518.0
19.09640 549.0
19.11140 533.0
19.12640 497.0
19.14140 489.0
19.15640 501.0
19.17140 536.0
19.18640 465.0
19.20140 504.0
19.21640 484.0
19.23140 466.0
19.24640 441.0
19.26140 457.0
19.27640 433.0
19.29140 458.0
19.30640 414.0
19.32140 466.0
19.33640 410.0
19.35140 396.0
19.36640 437.0
19.38140 401.0
19.39640 359.0
19.41140 365.0
19.42640 388.0
19.44140 338.0
19.45640 366.0
19.47140 347.0
19.48640 348.0
19.50140 337.0
19.51640 357.0
19.53140 345.0
19.54640 313.0
19.56140 310.0
19.57640 355.0
19.59140 343.0
19.60640 273.0
19.62140 291.0
19.63640 357.0
19.65140 307.0
19.66640 312.0