Folder: DataAnalysis/data/W6903m/XRD_2ThetaOmega

Note: data/W6903m/XRD_2ThetaOmega/W6903m_peaks.TXT
No.	Label	Pos. [°2Th.]	FWHM Left [°2Th.]	Area [cts*°2Th.]	Backgr.[cts]	d-spacing [Å]	Height [cts]	Shape Left	Status	Integral Breadth [°2Th.]	FWHM Right [°2Th.]	Shape Right	Obs. Lorentz B [°2Th.]	Obs. Gauss B [°2Th.]	Instr. Lorentz B [°2Th.]	Instr. Gauss B [°2Th.]	Crystallite Size [Å]	Micro Strain [%]	Crystallite Size only [Å]	Micro Strain only [%]
1	Cr2O3 3 0 0	64,4782(6)	0,453(3)	1250,99	166,66	1,44398	1896(8)	0,835(8)	Included	0,659946	 	 	0,563335	0,216367	0,077321	0,065505	214,723700	0,142666	177,064100	0,407758
2	Al2O3 3 0 0	68,16752(1)	0,06057(3)	30217,24	235,70	1,37454	389593(203)	0,5236(7)	Included	0,077561	 	 	0,043659	0,046553	0,078472	0,066480	-3061,427000	-0,030604	33699,080000	0,002039

Note: README.md
# Methods
## RSM analysis

Check out [doc](documentation/RSM.md)

File: scan_2th-om_m_Cr2O3_55-75deg_PIXscan_4min_C4.xy
55.0019 122.0
55.0708 112.0
55.1397 122.0
55.2087 145.0
55.2776 124.0
55.3465 135.0
55.4155 123.0
55.4844 118.0
55.5533 148.0
55.6223 147.0
55.6912 127.0
55.7601 133.0
55.8291 116.0
55.898 141.0
55.9669 134.0
56.0359 123.0
56.1048 133.0
56.1737 142.0
56.2427 115.0
56.3116 156.0
56.3805 126.0
56.4495 114.0
56.5184 116.0
56.5873 127.0
56.6563 129.0
56.7252 157.0
56.7941 131.0
56.8631 117.0
56.932 137.0
57.0009 118.0
57.0699 114.0
57.1388 153.0
57.2077 127.0
57.2767 141.0
57.3456 149.0
57.4146 127.0
57.4835 143.0
57.5524 128.0
57.6214 144.0
57.6903 146.0
57.7592 130.0
57.8282 150.0
57.8971 135.0
57.966 117.0
58.035 108.0
58.1039 124.0
58.1728 117.0
58.2418 117.0
58.3107 137.0
58.3796 115.0
58.4486 135.0
58.5175 132.0
58.5864 133.0
58.6554 130.0
58.7243 146.0
58.7932 136.0
58.8622 103.0
58.9311 128.0
59 114.0
59.069 126.0
59.1379 154.0
59.2068 121.0
59.2758 114.0
59.3447 142.0
59.4136 146.0
59.4826 114.0
59.5515 122.0
59.6204 131.0
59.6894 135.0
59.7583 148.0
59.8272 147.0
59.8962 145.0
59.9651 129.0
60.034 161.0
60.103 158.0
60.1719 111.0
60.2408 137.0
60.3098 160.0
60.3787 177.0
60.4476 138.0
60.5166 136.0
60.5855 136.0
60.6544 169.0
60.7234 181.0
60.7923 525.0
60.8613 1320.0
60.9302 655.0
60.9991 228.0
61.0681 176.0
61.137 153.0
61.2059 159.0
61.2749 159.0
61.3438 138.0
61.4127 136.0
61.4817 168.0
61.5506 118.0
61.6195 167.0
61.6885 134.0
61.7574 154.0
61.8263 150.0
61.8953 130.0
61.9642 156.0
62.0331 161.0
62.1021 152.0
62.171 152.0
62.2399 151.0
62.3089 156.0
62.3778 142.0
62.4467 150.0
62.5157 134.0
62.5846 170.0
62.6535 160.0
62.7225 160.0
62.7914 149.0
62.8603 138.0
62.9293 187.0
62.9982 166.0
63.0671 193.0
63.1361 178.0
63.205 194.0
63.2739 182.0
63.3429 225.0
63.4118 206.0
63.4807 233.0
63.5497 236.0
63.6186 241.0
63.6875 256.0
63.7565 297.0
63.8254 323.0
63.8943 422.0
63.9633 468.0
64.0322 568.0
64.1011 738.0
64.1701 878.0
64.239 1202.0
64.3079 1703.0
64.3769 2124.0
64.4458 2648.0
64.5148 2763.0
64.5837 2501.0
64.6526 2333.0
64.7216 1857.0
64.7905 1497.0
64.8594 1186.0
64.9284 840.0
64.9973 740.0
65.0662 606.0
65.1352 507.0
65.2041 421.0
65.273 402.0
65.342 370.0
65.4109 317.0
65.4798 305.0
65.5488 281.0
65.6177 267.0
65.6866 233.0
65.7556 216.0
65.8245 242.0
65.8934 229.0
65.9624 256.0
66.0313 230.0
66.1002 226.0
66.1692 289.0
66.2381 311.0
66.307 274.0
66.376 342.0
66.4449 323.0
66.5138 354.0
66.5828 387.0
66.6517 367.0
66.7206 400.0
66.7896 419.0
66.8585 439.0
66.9274 458.0
66.9964 486.0
67.0653 524.0
67.1342 568.0
67.2032 592.0
67.2721 625.0
67.341 631.0
67.41 717.0
67.4789 817.0
67.5478 910.0
67.6168 1033.0
67.6857 1277.0
67.7546 2085.0
67.8236 3617.0
67.8925 3840.0
67.9615 4301.0
68.0304 8098.0
68.0993 32681.0
68.1683 369393.0
68.2372 35679.0
68.3061 35971.0
68.3751 169868.0
68.444 12835.0
68.5129 4891.0
68.5819 3041.0
68.6508 2053.0
68.7197 1608.0
68.7887 1329.0
68.8576 1005.0
68.9265 909.0
68.9955 797.0
69.0644 669.0
69.1333 612.0
69.2023 558.0
69.2712 545.0
69.3401 471.0
69.4091 376.0
69.478 331.0
69.5469 333.0
69.6159 298.0
69.6848 323.0
69.7537 270.0
69.8227 256.0
69.8916 235.0
69.9605 238.0
70.0295 232.0
70.0984 203.0
70.1673 206.0
70.2363 183.0
70.3052 176.0
70.3741 172.0
70.4431 226.0
70.512 158.0
70.5809 192.0
70.6499 196.0
70.7188 205.0
70.7877 170.0
70.8567 163.0
70.9256 146.0
70.9945 165.0
71.0635 159.0
71.1324 163.0
71.2013 170.0
71.2703 146.0
71.3392 150.0
71.4082 174.0
71.4771 156.0
71.546 176.0
71.615 143.0
71.6839 164.0
71.7528 172.0
71.8218 164.0
71.8907 137.0
71.9596 164.0
72.0286 157.0
72.0975 142.0
72.1664 146.0
72.2354 136.0
72.3043 148.0
72.3732 148.0
72.4422 138.0
72.5111 172.0
72.58 149.0
72.649 136.0
72.7179 148.0
72.7868 139.0
72.8558 140.0
72.9247 121.0
72.9936 146.0
73.0626 156.0
73.1315 141.0
73.2004 138.0
73.2694 136.0
73.3383 153.0
73.4072 150.0
73.4762 133.0
73.5451 153.0
73.614 122.0
73.683 134.0
73.7519 139.0
73.8208 145.0
73.8898 158.0
73.9587 156.0
74.0276 163.0
74.0966 135.0
74.1655 137.0
74.2344 136.0
74.3034 130.0
74.3723 134.0
74.4412 163.0
74.5102 137.0
74.5791 137.0
74.648 152.0
74.717 125.0
74.7859 140.0
74.8548 128.0
74.9238 127.0
74.9927 152.0
74.9976 124.0