Folder: DataAnalysis/data/W6903m/XRD_Omega

Note: data/W6903m/XRD_Omega/W6903m_omega_peaks.TXT
No.	Label	Pos. [記mega]	FWHM Left [記mega]	Area [cts*記mega]	Backgr.[cts]	d-spacing [魔	Height [cts]	Shape Left	Status	Integral Breadth [記mega]	FWHM Right [記mega]	Shape Right	Obs. Lorentz B [記mega]	Obs. Gauss B [記mega]	Instr. Lorentz B [記mega]	Instr. Gauss B [記mega]	Crystallite Size [魔	Micro Strain [%]	Crystallite Size only [魔	Micro Strain only [%]
1	Cr2O3 3 0 0	31,4556(4)	0,6647(9)	2943,50	94,50	 	3842(6)	0,237(2)	Included	0,766076	 	 	0,204564	0,627978	0,074111	0,062783	702,962300	0,968124	129,110600	1,100500

Note: README.md
# Methods
## RSM analysis

Check out [doc](documentation/RSM.md)

File: scan_omega_4deg_step_0.005deg0_C4_2.xy
29.46010 94.0
29.47510 92.0
29.49010 69.0
29.50510 79.0
29.52010 90.0
29.53510 79.0
29.55010 72.0
29.56510 86.0
29.58010 80.0
29.59510 87.0
29.61010 92.0
29.62510 95.0
29.64010 80.0
29.65510 85.0
29.67010 85.0
29.68510 95.0
29.70010 99.0
29.71510 86.0
29.73010 88.0
29.74510 94.0
29.76010 78.0
29.77510 94.0
29.79010 95.0
29.80510 112.0
29.82010 79.0
29.83510 98.0
29.85010 100.0
29.86510 103.0
29.88010 97.0
29.89510 115.0
29.91010 91.0
29.92510 93.0
29.94010 122.0
29.95510 91.0
29.97010 111.0
29.98510 119.0
30.00010 108.0
30.01510 107.0
30.03010 116.0
30.04510 98.0
30.06010 123.0
30.07510 123.0
30.09010 100.0
30.10510 114.0
30.12010 132.0
30.13510 137.0
30.15010 114.0
30.16510 125.0
30.18010 129.0
30.19510 122.0
30.21010 127.0
30.22510 131.0
30.24010 157.0
30.25510 157.0
30.27010 151.0
30.28510 135.0
30.30010 166.0
30.31510 168.0
30.33010 180.0
30.34510 175.0
30.36010 174.0
30.37510 166.0
30.39010 183.0
30.40510 184.0
30.42010 202.0
30.43510 211.0
30.45010 202.0
30.46510 199.0
30.48010 233.0
30.49510 238.0
30.51010 239.0
30.52510 246.0
30.54010 289.0
30.55510 290.0
30.57010 273.0
30.58510 276.0
30.60010 313.0
30.61510 357.0
30.63010 372.0
30.64510 352.0
30.66010 392.0
30.67510 414.0
30.69010 435.0
30.70510 461.0
30.72010 483.0
30.73510 506.0
30.75010 498.0
30.76510 573.0
30.78010 547.0
30.79510 605.0
30.81010 656.0
30.82510 686.0
30.84010 736.0
30.85510 765.0
30.87010 839.0
30.88510 860.0
30.90010 933.0
30.91510 955.0
30.93010 1087.0
30.94510 1097.0
30.96010 1171.0
30.97510 1253.0
30.99010 1334.0
31.00510 1428.0
31.02010 1538.0
31.03510 1576.0
31.05010 1824.0
31.06510 1755.0
31.08010 1949.0
31.09510 2151.0
31.11010 2364.0
31.12510 2480.0
31.14010 2650.0
31.15510 2687.0
31.17010 2906.0
31.18510 3165.0
31.20010 3384.0
31.21510 3721.0
31.23010 3847.0
31.24510 4200.0
31.26010 4423.0
31.27510 4609.0
31.29010 4834.0
31.30510 5168.0
31.32010 5409.0
31.33510 5757.0
31.35010 5636.0
31.36510 5996.0
31.38010 5977.0
31.39510 6119.0
31.41010 6070.0
31.42510 6166.0
31.44010 6269.0
31.45510 6192.0
31.47010 6195.0
31.48510 6180.0
31.50010 5981.0
31.51510 5988.0
31.53010 5801.0
31.54510 5696.0
31.56010 5621.0
31.57510 5512.0
31.59010 5200.0
31.60510 5074.0
31.62010 5125.0
31.63510 4722.0
31.65010 4713.0
31.66510 4373.0
31.68010 4262.0
31.69510 4035.0
31.71010 3862.0
31.72510 3610.0
31.74010 3565.0
31.75510 3344.0
31.77010 3190.0
31.78510 3097.0
31.80010 2900.0
31.81510 2733.0
31.83010 2639.0
31.84510 2433.0
31.86010 2194.0
31.87510 2129.0
31.89010 2048.0
31.90510 1907.0
31.92010 1729.0
31.93510 1779.0
31.95010 1689.0
31.96510 1575.0
31.98010 1435.0
31.99510 1428.0
32.01010 1274.0
32.02510 1284.0
32.04010 1160.0
32.05510 1113.0
32.07010 1050.0
32.08510 999.0
32.10010 917.0
32.11510 910.0
32.13010 867.0
32.14510 759.0
32.16010 792.0
32.17510 687.0
32.19010 674.0
32.20510 605.0
32.22010 639.0
32.23510 578.0
32.25010 570.0
32.26510 499.0
32.28010 498.0
32.29510 509.0
32.31010 417.0
32.32510 419.0
32.34010 391.0
32.35510 356.0
32.37010 359.0
32.38510 340.0
32.40010 299.0
32.41510 288.0
32.43010 288.0
32.44510 284.0
32.46010 262.0
32.47510 280.0
32.49010 220.0
32.50510 237.0
32.52010 259.0
32.53510 217.0
32.55010 207.0
32.56510 220.0
32.58010 197.0
32.59510 195.0
32.61010 202.0
32.62510 185.0
32.64010 194.0
32.65510 163.0
32.67010 164.0
32.68510 171.0
32.70010 151.0
32.71510 171.0
32.73010 145.0
32.74510 151.0
32.76010 145.0
32.77510 139.0
32.79010 137.0
32.80510 122.0
32.82010 145.0
32.83510 133.0
32.85010 122.0
32.86510 109.0
32.88010 121.0
32.89510 131.0
32.91010 130.0
32.92510 133.0
32.94010 101.0
32.95510 119.0
32.97010 123.0
32.98510 112.0
33.00010 99.0
33.01510 103.0
33.03010 100.0
33.04510 92.0
33.06010 90.0
33.07510 101.0
33.09010 97.0
33.10510 101.0
33.12010 96.0
33.13510 91.0
33.15010 100.0
33.16510 95.0
33.18010 94.0
33.19510 96.0
33.21010 100.0
33.22510 89.0
33.24010 95.0
33.25510 81.0
33.27010 114.0
33.28510 93.0
33.30010 93.0
33.31510 86.0
33.33010 88.0
33.34510 93.0
33.36010 82.0
33.37510 85.0
33.39010 92.0
33.40510 74.0
33.42010 95.0