Folder: DataAnalysis/data/w6931m/XRD_Omega

Note: data/w6931m/XRD_Omega/W6931m_omega_peaks.TXT
No.	Label	Pos. [記mega]	FWHM Left [記mega]	Area [cts*記mega]	Backgr.[cts]	d-spacing [魔	Height [cts]	Shape Left	Status	Integral Breadth [記mega]	FWHM Right [記mega]	Shape Right	Obs. Lorentz B [記mega]	Obs. Gauss B [記mega]	Instr. Lorentz B [記mega]	Instr. Gauss B [記mega]	Crystallite Size [魔	Micro Strain [%]	Crystallite Size only [魔	Micro Strain only [%]
1	Cr2O3 3 0 0	32,8136(4)	0,569(1)	1474,31	31,25	 	2222(5)	0,270(3)	Included	0,663602	 	 	0,200937	0,527130	0,074047	0,062729	725,166900	0,775594	151,607400	0,899415

Note: README.md
# Methods
## RSM analysis

Check out [doc](documentation/RSM.md)

File: film_m_can_omega_4deg_step_0.005deg0.xy
30.89520 39.0
30.91020 39.0
30.92520 42.0
30.94020 32.0
30.95520 44.0
30.97020 43.0
30.98520 36.0
31.00020 38.0
31.01520 49.0
31.03020 42.0
31.04520 40.0
31.06020 34.0
31.07520 42.0
31.09020 43.0
31.10520 46.0
31.12020 51.0
31.13520 48.0
31.15020 44.0
31.16520 39.0
31.18020 49.0
31.19520 47.0
31.21020 46.0
31.22520 39.0
31.24020 41.0
31.25520 41.0
31.27020 34.0
31.28520 51.0
31.30020 51.0
31.31520 45.0
31.33020 50.0
31.34520 49.0
31.36020 51.0
31.37520 48.0
31.39020 48.0
31.40520 49.0
31.42020 42.0
31.43520 50.0
31.45020 54.0
31.46520 57.0
31.48020 55.0
31.49520 53.0
31.51020 49.0
31.52520 59.0
31.54020 62.0
31.55520 51.0
31.57020 60.0
31.58520 70.0
31.60020 53.0
31.61520 68.0
31.63020 74.0
31.64520 81.0
31.66020 67.0
31.67520 77.0
31.69020 80.0
31.70520 73.0
31.72020 85.0
31.73520 97.0
31.75020 73.0
31.76520 90.0
31.78020 85.0
31.79520 103.0
31.81020 92.0
31.82520 91.0
31.84020 102.0
31.85520 101.0
31.87020 98.0
31.88520 106.0
31.90020 141.0
31.91520 111.0
31.93020 122.0
31.94520 115.0
31.96020 145.0
31.97520 151.0
31.99020 162.0
32.00520 155.0
32.02020 180.0
32.03520 161.0
32.05020 215.0
32.06520 181.0
32.08020 239.0
32.09520 235.0
32.11020 248.0
32.12520 259.0
32.14020 278.0
32.15520 284.0
32.17020 304.0
32.18520 365.0
32.20020 379.0
32.21520 380.0
32.23020 417.0
32.24520 442.0
32.26020 448.0
32.27520 460.0
32.29020 493.0
32.30520 512.0
32.32020 604.0
32.33520 640.0
32.35020 668.0
32.36520 755.0
32.38020 814.0
32.39520 836.0
32.41020 890.0
32.42520 964.0
32.44020 968.0
32.45520 1052.0
32.47020 1132.0
32.48520 1150.0
32.50020 1227.0
32.51520 1379.0
32.53020 1430.0
32.54520 1429.0
32.56020 1619.0
32.57520 1659.0
32.59020 1760.0
32.60520 1843.0
32.62020 2005.0
32.63520 2090.0
32.65020 2179.0
32.66520 2273.0
32.68020 2342.0
32.69520 2438.0
32.71020 2608.0
32.72520 2784.0
32.74020 2862.0
32.75520 2957.0
32.77020 3069.0
32.78520 3135.0
32.80020 3146.0
32.81520 3306.0
32.83020 3364.0
32.84520 3507.0
32.86020 3486.0
32.87520 3363.0
32.89020 3427.0
32.90520 3503.0
32.92020 3423.0
32.93520 3397.0
32.95020 3458.0
32.96520 3185.0
32.98020 3144.0
32.99520 3074.0
33.01020 2976.0
33.02520 2779.0
33.04020 2727.0
33.05520 2497.0
33.07020 2341.0
33.08520 2222.0
33.10020 2041.0
33.11520 1868.0
33.13020 1719.0
33.14520 1626.0
33.16020 1431.0
33.17520 1242.0
33.19020 1206.0
33.20520 1022.0
33.22020 954.0
33.23520 824.0
33.25020 766.0
33.26520 710.0
33.28020 650.0
33.29520 597.0
33.31020 505.0
33.32520 471.0
33.34020 434.0
33.35520 409.0
33.37020 372.0
33.38520 369.0
33.40020 317.0
33.41520 277.0
33.43020 274.0
33.44520 281.0
33.46020 204.0
33.47520 232.0
33.49020 203.0
33.50520 188.0
33.52020 183.0
33.53520 181.0
33.55020 163.0
33.56520 152.0
33.58020 141.0
33.59520 155.0
33.61020 129.0
33.62520 124.0
33.64020 130.0
33.65520 105.0
33.67020 98.0
33.68520 110.0
33.70020 96.0
33.71520 98.0
33.73020 87.0
33.74520 93.0
33.76020 91.0
33.77520 93.0
33.79020 95.0
33.80520 66.0
33.82020 71.0
33.83520 79.0
33.85020 64.0
33.86520 65.0
33.88020 73.0
33.89520 72.0
33.91020 62.0
33.92520 48.0
33.94020 58.0
33.95520 61.0
33.97020 60.0
33.98520 52.0
34.00020 60.0
34.01520 60.0
34.03020 58.0
34.04520 40.0
34.06020 47.0
34.07520 46.0
34.09020 66.0
34.10520 56.0
34.12020 49.0
34.13520 49.0
34.15020 46.0
34.16520 47.0
34.18020 49.0
34.19520 48.0
34.21020 45.0
34.22520 37.0
34.24020 34.0
34.25520 40.0
34.27020 49.0
34.28520 57.0
34.30020 29.0
34.31520 58.0
34.33020 44.0
34.34520 41.0
34.36020 43.0
34.37520 33.0
34.39020 44.0
34.40520 54.0
34.42020 31.0
34.43520 34.0
34.45020 36.0
34.46520 46.0
34.48020 39.0
34.49520 41.0
34.51020 44.0
34.52520 26.0
34.54020 31.0
34.55520 31.0
34.57020 36.0
34.58520 40.0
34.60020 32.0
34.61520 37.0
34.63020 34.0
34.64520 41.0
34.66020 35.0
34.67520 35.0
34.69020 31.0
34.70520 34.0
34.72020 44.0
34.73520 36.0
34.75020 35.0
34.76520 29.0
34.78020 31.0
34.79520 27.0
34.81020 31.0
34.82520 31.0
34.84020 42.0
34.85520 43.0