Folder: DataAnalysis/data/w6931m/XRD_2ThetaOmega

Note: data/w6931m/XRD_2ThetaOmega/W6931m_peaks.TXT
No.	Label	Pos. [°2Th.]	FWHM Left [°2Th.]	Area [cts*°2Th.]	Backgr.[cts]	d-spacing [Å]	Height [cts]	Shape Left	Status	Integral Breadth [°2Th.]	FWHM Right [°2Th.]	Shape Right	Obs. Lorentz B [°2Th.]	Obs. Gauss B [°2Th.]	Instr. Lorentz B [°2Th.]	Instr. Gauss B [°2Th.]	Crystallite Size [Å]	Micro Strain [%]	Crystallite Size only [Å]	Micro Strain only [%]
1	Cr2O3 3 0 0	64,7135(4)	0,284(2)	882,64	98,15	1,43930	2393(11)	0,559(8)	Included	0,368769	 	 	0,220518	0,210936	0,077388	0,065562	730,063900	0,138076	346,915700	0,207443
2	Al2O3 3 0 0	68,15430(1)	0,04411(5)	13326,84	113,96	1,37478	220083(193)	0,697(1)	Included	0,060554	 	 	0,044116	0,027787	0,078468	0,066476	-3102,299000	-0,038952	33696,450000	0,002040

Note: README.md
# Methods
## RSM analysis

Check out [doc](documentation/RSM.md)

File: scan_2th-om_m_Cr2O3_55-75deg_PIXscan_4min.xy
55.0019 63.0
55.0708 56.0
55.1397 53.0
55.2087 44.0
55.2776 50.0
55.3465 43.0
55.4155 52.0
55.4844 47.0
55.5533 46.0
55.6223 45.0
55.6912 50.0
55.7601 48.0
55.8291 50.0
55.898 54.0
55.9669 44.0
56.0359 58.0
56.1048 47.0
56.1737 57.0
56.2427 53.0
56.3116 59.0
56.3805 52.0
56.4495 58.0
56.5184 60.0
56.5873 43.0
56.6563 56.0
56.7252 40.0
56.7941 59.0
56.8631 67.0
56.932 53.0
57.0009 45.0
57.0699 50.0
57.1388 56.0
57.2077 51.0
57.2767 53.0
57.3456 67.0
57.4146 63.0
57.4835 60.0
57.5524 57.0
57.6214 65.0
57.6903 64.0
57.7592 59.0
57.8282 67.0
57.8971 64.0
57.966 66.0
58.035 51.0
58.1039 76.0
58.1728 50.0
58.2418 65.0
58.3107 50.0
58.3796 49.0
58.4486 69.0
58.5175 64.0
58.5864 48.0
58.6554 58.0
58.7243 55.0
58.7932 55.0
58.8622 65.0
58.9311 70.0
59 49.0
59.069 52.0
59.1379 61.0
59.2068 64.0
59.2758 51.0
59.3447 54.0
59.4136 56.0
59.4826 57.0
59.5515 68.0
59.6204 56.0
59.6894 68.0
59.7583 59.0
59.8272 53.0
59.8962 62.0
59.9651 66.0
60.034 58.0
60.103 57.0
60.1719 74.0
60.2408 59.0
60.3098 59.0
60.3787 63.0
60.4476 59.0
60.5166 55.0
60.5855 61.0
60.6544 76.0
60.7234 86.0
60.7923 290.0
60.8613 431.0
60.9302 220.0
60.9991 89.0
61.0681 72.0
61.137 79.0
61.2059 72.0
61.2749 60.0
61.3438 60.0
61.4127 62.0
61.4817 69.0
61.5506 63.0
61.6195 73.0
61.6885 72.0
61.7574 60.0
61.8263 72.0
61.8953 67.0
61.9642 62.0
62.0331 72.0
62.1021 75.0
62.171 51.0
62.2399 70.0
62.3089 87.0
62.3778 69.0
62.4467 68.0
62.5157 63.0
62.5846 70.0
62.6535 77.0
62.7225 77.0
62.7914 66.0
62.8603 73.0
62.9293 69.0
62.9982 61.0
63.0671 73.0
63.1361 72.0
63.205 75.0
63.2739 65.0
63.3429 82.0
63.4118 75.0
63.4807 108.0
63.5497 81.0
63.6186 93.0
63.6875 105.0
63.7565 96.0
63.8254 108.0
63.8943 116.0
63.9633 135.0
64.0322 126.0
64.1011 152.0
64.1701 205.0
64.239 242.0
64.3079 308.0
64.3769 419.0
64.4458 589.0
64.5148 891.0
64.5837 1394.0
64.6526 2361.0
64.7216 3129.0
64.7905 2750.0
64.8594 2302.0
64.9284 1944.0
64.9973 1162.0
65.0662 688.0
65.1352 456.0
65.2041 296.0
65.273 267.0
65.342 180.0
65.4109 198.0
65.4798 178.0
65.5488 142.0
65.6177 140.0
65.6866 137.0
65.7556 127.0
65.8245 107.0
65.8934 100.0
65.9624 122.0
66.0313 112.0
66.1002 122.0
66.1692 125.0
66.2381 122.0
66.307 122.0
66.376 144.0
66.4449 147.0
66.5138 145.0
66.5828 143.0
66.6517 152.0
66.7206 156.0
66.7896 175.0
66.8585 158.0
66.9274 174.0
66.9964 171.0
67.0653 204.0
67.1342 202.0
67.2032 273.0
67.2721 299.0
67.341 281.0
67.41 334.0
67.4789 340.0
67.5478 430.0
67.6168 518.0
67.6857 619.0
67.7546 1046.0
67.8236 1713.0
67.8925 1662.0
67.9615 2052.0
68.0304 4039.0
68.0993 19660.0
68.1683 147334.0
68.2372 10451.0
68.3061 21473.0
68.3751 43222.0
68.444 4185.0
68.5129 1898.0
68.5819 1164.0
68.6508 885.0
68.7197 688.0
68.7887 558.0
68.8576 462.0
68.9265 366.0
68.9955 343.0
69.0644 305.0
69.1333 273.0
69.2023 266.0
69.2712 187.0
69.3401 181.0
69.4091 185.0
69.478 143.0
69.5469 151.0
69.6159 119.0
69.6848 126.0
69.7537 112.0
69.8227 121.0
69.8916 115.0
69.9605 96.0
70.0295 97.0
70.0984 83.0
70.1673 90.0
70.2363 83.0
70.3052 97.0
70.3741 87.0
70.4431 91.0
70.512 75.0
70.5809 71.0
70.6499 73.0
70.7188 72.0
70.7877 79.0
70.8567 71.0
70.9256 89.0
70.9945 91.0
71.0635 67.0
71.1324 80.0
71.2013 72.0
71.2703 83.0
71.3392 75.0
71.4082 69.0
71.4771 72.0
71.546 65.0
71.615 71.0
71.6839 74.0
71.7528 73.0
71.8218 76.0
71.8907 77.0
71.9596 60.0
72.0286 74.0
72.0975 70.0
72.1664 57.0
72.2354 57.0
72.3043 69.0
72.3732 68.0
72.4422 93.0
72.5111 59.0
72.58 59.0
72.649 65.0
72.7179 68.0
72.7868 77.0
72.8558 59.0
72.9247 65.0
72.9936 68.0
73.0626 70.0
73.1315 75.0
73.2004 69.0
73.2694 74.0
73.3383 68.0
73.4072 60.0
73.4762 82.0
73.5451 66.0
73.614 55.0
73.683 67.0
73.7519 65.0
73.8208 70.0
73.8898 57.0
73.9587 56.0
74.0276 68.0
74.0966 63.0
74.1655 74.0
74.2344 68.0
74.3034 83.0
74.3723 71.0
74.4412 66.0
74.5102 61.0
74.5791 56.0
74.648 58.0
74.717 62.0
74.7859 68.0
74.8548 61.0
74.9238 51.0
74.9927 63.0
74.9976 63.0