Folder: DataAnalysis/data/W6775r/XRD_2ThetaOmega

Note: data/W6775r/XRD_2ThetaOmega/W6775r_peaks.TXT
No.	Label	Pos. [°2Th.]	FWHM Left [°2Th.]	Area calc.	Assignment	h	k	l	Multiplicity	F obs.	F calc.	Area [cts*°2Th.]	Derivation	Backgr.[cts]	d-spacing [Å]	Height [cts]	K-A2 / K-A1 Ratio	Matched	Matched by	Rel. Int. [%]	Source	Status	Integral Breadth [°2Th.]
1	Cr2O3 0 1 2	24,335(2)	0,12(1)	0,00	 	0	1	2	 	0,000000	0,000000	473,59	Pure KA1	-69,61	3,65466	2599(1430)	0,500	False	 	5,17	Profile fitting	Included	0,182215
2	Al2O3 0 1 2	25,52052(4)	0,0509(1)	0,00	 	0	1	2	 	0,000000	0,000000	2726,43	Pure KA1	497,64	3,48753	50315(258)	0,500	False	 	100,00	Profile fitting	Included	0,054187
3	Cr2O3 0 2 4	49,955(1)	0,197(6)	0,00	 	0	2	4	 	0,000000	0,000000	334,27	Pure KA1	-63,73	1,82423	1078(55)	0,500	False	 	2,14	Profile fitting	Included	0,310002
4	Al2O3 0 2 4	52,49786(4)	0,0675(1)	0,00	 	0	2	4	 	0,000000	0,000000	2630,46	Pure KA1	403,66	1,74169	36632(162)	0,500	False	 	72,80	Profile fitting	Included	0,071808
5	Cr2O3 0 3 6	78,648(4)	0,26(1)	0,00	 	0	3	6	 	0,000000	0,000000	23,99	Pure KA1	10,88	1,21554	61(3)	0,500	False	 	0,12	Profile fitting	Included	0,395745
6	Al2O3 0 3 6	83,1749(2)	0,0697(4)	0,00	 	0	3	6	 	0,000000	0,000000	208,51	Pure KA1	10,53	1,16050	2417(17)	0,500	False	 	4,80	Profile fitting	Included	0,086258
7	Al2O3 0 4 8	124,5890(1)	0,1195(2)	0,00	 	0	4	8	 	0,000000	0,000000	1311,64	Pure KA1	26,24	0,87005	8406(7)	0,500	False	 	16,71	Profile fitting	Included	0,156033

Note: README.md
# Methods
## RSM analysis

Check out [doc](documentation/RSM.md)

File: W6775r_absolute_2th-om_10-130deg_PIXscan_17min_1.xy
10.0035 32.0
10.4072 23.0
10.811 19.0
11.2147 28.0
11.6185 22.0
12.0222 23.0
12.426 24.0
12.8298 23.0
13.2335 22.0
13.6373 26.0
14.041 16.0
14.4448 20.0
14.8485 19.0
15.2523 10.0
15.656 18.0
16.0598 19.0
16.4636 19.0
16.8673 17.0
17.2711 14.0
17.6748 12.0
18.0786 12.0
18.4823 20.0
18.8861 16.0
19.2899 18.0
19.6936 14.0
20.0974 13.0
20.5011 21.0
20.9049 14.0
21.3086 15.0
21.7124 19.0
22.1161 12.0
22.5199 19.0
22.9237 18.0
23.3274 38.0
23.7312 32.0
24.1349 167.0
24.5387 271.0
24.9424 60.0
25.3462 308.0
25.75 332.0
26.1537 58.0
26.5575 34.0
26.9612 19.0
27.365 13.0
27.7687 8.0
28.1725 4.0
28.5762 13.0
28.98 8.0
29.3838 10.0
29.7875 8.0
30.1913 6.0
30.595 5.0
30.9988 11.0
31.4025 7.0
31.8063 14.0
32.2101 10.0
32.6138 5.0
33.0176 13.0
33.4213 5.0
33.8251 10.0
34.2288 8.0
34.6326 8.0
35.0363 7.0
35.4401 12.0
35.8439 14.0
36.2476 12.0
36.6514 12.0
37.0551 8.0
37.4589 8.0
37.8626 7.0
38.2664 15.0
38.6702 13.0
39.0739 7.0
39.4777 10.0
39.8814 16.0
40.2852 7.0
40.6889 16.0
41.0927 8.0
41.4964 8.0
41.9002 6.0
42.304 8.0
42.7077 7.0
43.1115 17.0
43.5152 10.0
43.919 12.0
44.3227 20.0
44.7265 13.0
45.1303 11.0
45.534 10.0
45.9378 13.0
46.3415 8.0
46.7453 8.0
47.149 70.0
47.5528 16.0
47.9565 16.0
48.3603 15.0
48.7641 17.0
49.1678 24.0
49.5716 47.0
49.9753 1197.0
50.3791 67.0
50.7828 29.0
51.1866 34.0
51.5903 68.0
51.9941 104.0
52.3979 1198.0
52.8016 500.0
53.2054 99.0
53.6091 45.0
54.0129 35.0
54.4166 20.0
54.8204 19.0
55.2242 18.0
55.6279 15.0
56.0317 9.0
56.4354 17.0
56.8392 22.0
57.2429 11.0
57.6467 14.0
58.0504 8.0
58.4542 10.0
58.858 11.0
59.2617 21.0
59.6655 12.0
60.0692 10.0
60.473 9.0
60.8767 8.0
61.2805 11.0
61.6843 10.0
62.088 14.0
62.4918 7.0
62.8955 15.0
63.2993 5.0
63.703 9.0
64.1068 12.0
64.5105 9.0
64.9143 10.0
65.3181 10.0
65.7218 13.0
66.1256 8.0
66.5293 12.0
66.9331 11.0
67.3368 6.0
67.7406 11.0
68.1444 13.0
68.5481 11.0
68.9519 15.0
69.3556 14.0
69.7594 11.0
70.1631 17.0
70.5669 13.0
70.9706 7.0
71.3744 11.0
71.7782 15.0
72.1819 15.0
72.5857 6.0
72.9894 15.0
73.3932 15.0
73.7969 14.0
74.2007 17.0
74.6045 13.0
75.0082 14.0
75.412 21.0
75.8157 19.0
76.2195 11.0
76.6232 13.0
77.027 14.0
77.4307 16.0
77.8345 13.0
78.2383 15.0
78.642 81.0
79.0458 36.0
79.4495 10.0
79.8533 10.0
80.257 12.0
80.6608 12.0
81.0646 11.0
81.4683 14.0
81.8721 16.0
82.2758 16.0
82.6796 21.0
83.0833 137.0
83.4871 281.0
83.8908 19.0
84.2946 12.0
84.6984 13.0
85.1021 8.0
85.5059 14.0
85.9096 15.0
86.3134 12.0
86.7171 16.0
87.1209 9.0
87.5247 14.0
87.9284 11.0
88.3322 9.0
88.7359 22.0
89.1397 12.0
89.5434 21.0
89.9472 7.0
90.3509 10.0
90.7547 10.0
91.1585 7.0
91.5622 7.0
91.966 9.0
92.3697 13.0
92.7735 16.0
93.1772 17.0
93.581 11.0
93.9848 10.0
94.3885 11.0
94.7923 21.0
95.196 7.0
95.5998 8.0
96.0035 11.0
96.4073 15.0
96.811 11.0
97.2148 12.0
97.6186 18.0
98.0223 16.0
98.4261 16.0
98.8298 16.0
99.2336 14.0
99.6373 16.0
100.041 15.0
100.445 14.0
100.849 15.0
101.252 7.0
101.656 14.0
102.06 13.0
102.464 12.0
102.867 9.0
103.271 15.0
103.675 19.0
104.079 16.0
104.482 18.0
104.886 10.0
105.29 13.0
105.694 9.0
106.097 23.0
106.501 18.0
106.905 12.0
107.309 12.0
107.712 11.0
108.116 10.0
108.52 21.0
108.924 15.0
109.327 7.0
109.731 30.0
110.135 16.0
110.539 26.0
110.943 13.0
111.346 7.0
111.75 10.0
112.154 12.0
112.558 14.0
112.961 9.0
113.365 12.0
113.769 19.0
114.173 15.0
114.576 16.0
114.98 16.0
115.384 24.0
115.788 24.0
116.191 28.0
116.595 15.0
116.999 12.0
117.403 23.0
117.806 15.0
118.21 13.0
118.614 15.0
119.018 13.0
119.421 22.0
119.825 18.0
120.229 17.0
120.633 22.0
121.036 18.0
121.44 20.0
121.844 22.0
122.248 24.0
122.651 27.0
123.055 34.0
123.459 39.0
123.863 67.0
124.266 172.0
124.67 2636.0
125.074 2252.0
125.478 114.0
125.881 44.0
126.285 24.0
126.689 31.0
127.093 30.0
127.497 28.0
127.9 17.0
128.304 21.0
128.708 26.0
129.112 23.0
129.515 12.0
129.919 26.0
129.998 15.0