Folder: DataAnalysis/data/W6775r/XRD_Omega

Note: data/W6775r/XRD_Omega/W6775r_omega_peaks.TXT
No.	Label	Pos. [記mega]	FWHM Left [記mega]	Area [cts*記mega]	Backgr.[cts]	d-spacing [魔	Height [cts]	Shape Left	Status	Integral Breadth [記mega]	FWHM Right [記mega]	Shape Right	Obs. Lorentz B [記mega]	Obs. Gauss B [記mega]	Instr. Lorentz B [記mega]	Instr. Gauss B [記mega]	Crystallite Size [魔	Micro Strain [%]	Crystallite Size only [魔	Micro Strain only [%]
1	Cr2O3 0 2 4	25,0056(5)	0,604(1)	1526,56	35,56	 	2148(5)	0,297(3)	Included	0,710531	 	 	0,235237	0,550035	0,074598	0,063194	562,838200	1,075143	138,451000	1,284991

Note: README.md
# Methods
## RSM analysis

Check out [doc](documentation/RSM.md)

File: scan_omega_4deg_step_0.005deg0_1.xy
23.06150 39.0
23.07650 39.0
23.09150 49.0
23.10650 48.0
23.12150 31.0
23.13650 55.0
23.15150 28.0
23.16650 65.0
23.18150 37.0
23.19650 50.0
23.21150 53.0
23.22650 40.0
23.24150 44.0
23.25650 38.0
23.27150 46.0
23.28650 50.0
23.30150 49.0
23.31650 50.0
23.33150 52.0
23.34650 50.0
23.36150 62.0
23.37650 51.0
23.39150 76.0
23.40650 61.0
23.42150 60.0
23.43650 54.0
23.45150 63.0
23.46650 60.0
23.48150 71.0
23.49650 70.0
23.51150 53.0
23.52650 62.0
23.54150 80.0
23.55650 59.0
23.57150 67.0
23.58650 79.0
23.60150 80.0
23.61650 81.0
23.63150 64.0
23.64650 86.0
23.66150 88.0
23.67650 77.0
23.69150 73.0
23.70650 75.0
23.72150 82.0
23.73650 98.0
23.75150 100.0
23.76650 95.0
23.78150 80.0
23.79650 98.0
23.81150 116.0
23.82650 106.0
23.84150 115.0
23.85650 78.0
23.87150 102.0
23.88650 118.0
23.90150 135.0
23.91650 123.0
23.93150 126.0
23.94650 134.0
23.96150 142.0
23.97650 123.0
23.99150 151.0
24.00650 152.0
24.02150 152.0
24.03650 158.0
24.05150 196.0
24.06650 156.0
24.08150 171.0
24.09650 173.0
24.11150 202.0
24.12650 198.0
24.14150 187.0
24.15650 233.0
24.17150 215.0
24.18650 237.0
24.20150 237.0
24.21650 267.0
24.23150 245.0
24.24650 278.0
24.26150 293.0
24.27650 288.0
24.29150 317.0
24.30650 338.0
24.32150 334.0
24.33650 380.0
24.35150 351.0
24.36650 337.0
24.38150 394.0
24.39650 449.0
24.41150 467.0
24.42650 440.0
24.44150 523.0
24.45650 495.0
24.47150 546.0
24.48650 611.0
24.50150 603.0
24.51650 635.0
24.53150 641.0
24.54650 684.0
24.56150 760.0
24.57650 802.0
24.59150 876.0
24.60650 874.0
24.62150 969.0
24.63650 1009.0
24.65150 1081.0
24.66650 1230.0
24.68150 1297.0
24.69650 1322.0
24.71150 1361.0
24.72650 1455.0
24.74150 1655.0
24.75650 1685.0
24.77150 1765.0
24.78650 1872.0
24.80150 1966.0
24.81650 2107.0
24.83150 2162.0
24.84650 2281.0
24.86150 2406.0
24.87650 2544.0
24.89150 2642.0
24.90650 2821.0
24.92150 2942.0
24.93650 2968.0
24.95150 3136.0
24.96650 3335.0
24.98150 3248.0
24.99650 3339.0
25.01150 3441.0
25.02650 3504.0
25.04150 3394.0
25.05650 3592.0
25.07150 3444.0
25.08650 3427.0
25.10150 3366.0
25.11650 3321.0
25.13150 3226.0
25.14650 3192.0
25.16150 2955.0
25.17650 2937.0
25.19150 2803.0
25.20650 2567.0
25.22150 2482.0
25.23650 2335.0
25.25150 2168.0
25.26650 2079.0
25.28150 1953.0
25.29650 1825.0
25.31150 1675.0
25.32650 1633.0
25.34150 1495.0
25.35650 1387.0
25.37150 1241.0
25.38650 1196.0
25.40150 1132.0
25.41650 986.0
25.43150 963.0
25.44650 832.0
25.46150 798.0
25.47650 754.0
25.49150 707.0
25.50650 621.0
25.52150 654.0
25.53650 589.0
25.55150 491.0
25.56650 515.0
25.58150 452.0
25.59650 448.0
25.61150 393.0
25.62650 386.0
25.64150 321.0
25.65650 341.0
25.67150 308.0
25.68650 295.0
25.70150 254.0
25.71650 195.0
25.73150 227.0
25.74650 224.0
25.76150 188.0
25.77650 179.0
25.79150 149.0
25.80650 170.0
25.82150 143.0
25.83650 130.0
25.85150 142.0
25.86650 122.0
25.88150 126.0
25.89650 112.0
25.91150 104.0
25.92650 102.0
25.94150 101.0
25.95650 98.0
25.97150 81.0
25.98650 77.0
26.00150 91.0
26.01650 91.0
26.03150 90.0
26.04650 71.0
26.06150 76.0
26.07650 73.0
26.09150 62.0
26.10650 62.0
26.12150 84.0
26.13650 71.0
26.15150 58.0
26.16650 56.0
26.18150 66.0
26.19650 57.0
26.21150 48.0
26.22650 62.0
26.24150 45.0
26.25650 53.0
26.27150 48.0
26.28650 41.0
26.30150 42.0
26.31650 55.0
26.33150 57.0
26.34650 56.0
26.36150 43.0
26.37650 37.0
26.39150 52.0
26.40650 44.0
26.42150 37.0
26.43650 45.0
26.45150 40.0
26.46650 37.0
26.48150 37.0
26.49650 34.0
26.51150 35.0
26.52650 43.0
26.54150 38.0
26.55650 38.0
26.57150 41.0
26.58650 33.0
26.60150 33.0
26.61650 38.0
26.63150 38.0
26.64650 43.0
26.66150 38.0
26.67650 35.0
26.69150 35.0
26.70650 39.0
26.72150 26.0
26.73650 30.0
26.75150 21.0
26.76650 31.0
26.78150 29.0
26.79650 24.0
26.81150 25.0
26.82650 32.0
26.84150 26.0
26.85650 39.0
26.87150 35.0
26.88650 34.0
26.90150 39.0
26.91650 28.0
26.93150 35.0
26.94650 25.0
26.96150 23.0
26.97650 30.0
26.99150 29.0
27.00650 31.0
27.02150 32.0