Folder: DataAnalysis/data/W6783r/XRD_2ThetaOmega

Note: data/W6783r/XRD_2ThetaOmega/W6783r_peaks.TXT
No.	Label	Pos. [°2Th.]	FWHM Left [°2Th.]	Area calc.	Assignment	h	k	l	Multiplicity	F obs.	F calc.	Area [cts*°2Th.]	Derivation	Backgr.[cts]	d-spacing [Å]	Height [cts]	K-A2 / K-A1 Ratio	Matched	Matched by	Rel. Int. [%]	Source	Status	Integral Breadth [°2Th.]
1	Cr2O3 0 1 2	24,381(2)	0,342(6)	0,00	 	 	 	 	 	0,000000	0,000000	31,73	Pure KA1	48,38	3,64788	87(2)	0,500	False	 	0,17	Profile fitting	Included	0,364500
2	Al2O3 0 1 2	25,53013(3)	0,04751(6)	0,00	 	 	 	 	 	0,000000	0,000000	2841,64	Pure KA1	52,14	3,48624	51502(82)	0,500	False	 	100,00	Profile fitting	Included	0,055175
3	Cr2O3 0 2 4	50(3)	1(1)	0,00	 	 	 	 	 	0,000000	0,000000	15,09	Pure KA1	39,50	1,82142	19(37)	0,500	False	 	0,04	Profile fitting	Included	0,793410
4	Al2O3 0 2 4	52,50730(3)	0,05477(8)	0,00	 	 	 	 	 	0,000000	0,000000	3294,62	Pure KA1	97,82	1,74140	49683(74)	0,500	False	 	96,47	Profile fitting	Included	0,066313
5	Al2O3 0 3 6	83,1819(2)	0,0677(4)	0,00	 	 	 	 	 	0,000000	0,000000	183,48	Pure KA1	15,28	1,16042	2187(9)	0,500	False	 	4,25	Profile fitting	Included	0,083911
6	Al2O3 0 4 8	124,5932(1)	0,1072(3)	0,00	 	 	 	 	 	0,000000	0,000000	1198,10	Pure KA1	10,88	0,87003	8048(14)	0,500	False	 	15,63	Profile fitting	Included	0,148864

Note: README.md
# Methods
## RSM analysis

Check out [doc](documentation/RSM.md)

File: W6783r_absolute_2th-om_10-130deg_PIXscan_17min_6.xy
10.0035 27.0
10.4072 13.0
10.811 23.0
11.2147 23.0
11.6185 24.0
12.0222 19.0
12.426 18.0
12.8298 20.0
13.2335 21.0
13.6373 19.0
14.041 26.0
14.4448 17.0
14.8485 23.0
15.2523 8.0
15.656 20.0
16.0598 13.0
16.4636 20.0
16.8673 19.0
17.2711 17.0
17.6748 17.0
18.0786 19.0
18.4823 12.0
18.8861 18.0
19.2899 17.0
19.6936 10.0
20.0974 15.0
20.5011 18.0
20.9049 20.0
21.3086 11.0
21.7124 9.0
22.1161 18.0
22.5199 12.0
22.9237 16.0
23.3274 22.0
23.7312 27.0
24.1349 53.0
24.5387 87.0
24.9424 45.0
25.3462 220.0
25.75 377.0
26.1537 111.0
26.5575 31.0
26.9612 27.0
27.365 18.0
27.7687 14.0
28.1725 12.0
28.5762 11.0
28.98 10.0
29.3838 10.0
29.7875 4.0
30.1913 15.0
30.595 14.0
30.9988 16.0
31.4025 15.0
31.8063 22.0
32.2101 13.0
32.6138 11.0
33.0176 12.0
33.4213 17.0
33.8251 15.0
34.2288 11.0
34.6326 9.0
35.0363 16.0
35.4401 12.0
35.8439 8.0
36.2476 13.0
36.6514 12.0
37.0551 15.0
37.4589 5.0
37.8626 9.0
38.2664 14.0
38.6702 13.0
39.0739 7.0
39.4777 12.0
39.8814 14.0
40.2852 9.0
40.6889 7.0
41.0927 10.0
41.4964 17.0
41.9002 9.0
42.304 13.0
42.7077 7.0
43.1115 11.0
43.5152 10.0
43.919 10.0
44.3227 26.0
44.7265 15.0
45.1303 9.0
45.534 7.0
45.9378 16.0
46.3415 18.0
46.7453 20.0
47.149 79.0
47.5528 8.0
47.9565 13.0
48.3603 8.0
48.7641 12.0
49.1678 14.0
49.5716 26.0
49.9753 63.0
50.3791 34.0
50.7828 36.0
51.1866 29.0
51.5903 50.0
51.9941 76.0
52.3979 957.0
52.8016 535.0
53.2054 125.0
53.6091 87.0
54.0129 40.0
54.4166 23.0
54.8204 26.0
55.2242 18.0
55.6279 17.0
56.0317 10.0
56.4354 20.0
56.8392 23.0
57.2429 20.0
57.6467 18.0
58.0504 16.0
58.4542 12.0
58.858 13.0
59.2617 13.0
59.6655 13.0
60.0692 13.0
60.473 12.0
60.8767 13.0
61.2805 13.0
61.6843 10.0
62.088 15.0
62.4918 16.0
62.8955 13.0
63.2993 13.0
63.703 14.0
64.1068 14.0
64.5105 15.0
64.9143 10.0
65.3181 12.0
65.7218 16.0
66.1256 16.0
66.5293 12.0
66.9331 11.0
67.3368 16.0
67.7406 16.0
68.1444 10.0
68.5481 3.0
68.9519 13.0
69.3556 19.0
69.7594 19.0
70.1631 13.0
70.5669 14.0
70.9706 11.0
71.3744 15.0
71.7782 8.0
72.1819 17.0
72.5857 13.0
72.9894 9.0
73.3932 13.0
73.7969 9.0
74.2007 11.0
74.6045 8.0
75.0082 12.0
75.412 9.0
75.8157 15.0
76.2195 12.0
76.6232 11.0
77.027 14.0
77.4307 9.0
77.8345 10.0
78.2383 13.0
78.642 9.0
79.0458 22.0
79.4495 15.0
79.8533 15.0
80.257 8.0
80.6608 14.0
81.0646 11.0
81.4683 13.0
81.8721 7.0
82.2758 17.0
82.6796 21.0
83.0833 96.0
83.4871 314.0
83.8908 20.0
84.2946 11.0
84.6984 15.0
85.1021 14.0
85.5059 21.0
85.9096 9.0
86.3134 14.0
86.7171 13.0
87.1209 12.0
87.5247 10.0
87.9284 14.0
88.3322 19.0
88.7359 16.0
89.1397 12.0
89.5434 9.0
89.9472 12.0
90.3509 19.0
90.7547 11.0
91.1585 16.0
91.5622 11.0
91.966 8.0
92.3697 18.0
92.7735 14.0
93.1772 12.0
93.581 8.0
93.9848 13.0
94.3885 9.0
94.7923 14.0
95.196 8.0
95.5998 8.0
96.0035 10.0
96.4073 11.0
96.811 15.0
97.2148 14.0
97.6186 19.0
98.0223 16.0
98.4261 14.0
98.8298 13.0
99.2336 17.0
99.6373 6.0
100.041 11.0
100.445 15.0
100.849 9.0
101.252 13.0
101.656 11.0
102.06 17.0
102.464 9.0
102.867 7.0
103.271 10.0
103.675 10.0
104.079 6.0
104.482 11.0
104.886 11.0
105.29 13.0
105.694 14.0
106.097 15.0
106.501 12.0
106.905 13.0
107.309 15.0
107.712 12.0
108.116 11.0
108.52 11.0
108.924 15.0
109.327 17.0
109.731 15.0
110.135 11.0
110.539 14.0
110.943 18.0
111.346 13.0
111.75 17.0
112.154 15.0
112.558 15.0
112.961 15.0
113.365 9.0
113.769 11.0
114.173 9.0
114.576 14.0
114.98 8.0
115.384 16.0
115.788 21.0
116.191 25.0
116.595 13.0
116.999 10.0
117.403 14.0
117.806 13.0
118.21 21.0
118.614 13.0
119.018 17.0
119.421 14.0
119.825 18.0
120.229 20.0
120.633 18.0
121.036 15.0
121.44 12.0
121.844 17.0
122.248 17.0
122.651 18.0
123.055 30.0
123.459 38.0
123.863 55.0
124.266 147.0
124.67 2317.0
125.074 1787.0
125.478 106.0
125.881 46.0
126.285 37.0
126.689 32.0
127.093 29.0
127.497 22.0
127.9 19.0
128.304 13.0
128.708 19.0
129.112 24.0
129.515 24.0
129.919 28.0
129.998 15.0