Folder: DataAnalysis/data/W6783r/XRD_Omega

Note: data/W6783r/XRD_Omega/W6783r_omega_peaks.TXT
No.	Label	Pos. [記mega]	FWHM Left [記mega]	Area [cts*記mega]	Backgr.[cts]	d-spacing [魔	Height [cts]	Shape Left	Status	Integral Breadth [記mega]	FWHM Right [記mega]	Shape Right	Obs. Lorentz B [記mega]	Obs. Gauss B [記mega]	Instr. Lorentz B [記mega]	Instr. Gauss B [記mega]	Crystallite Size [魔	Micro Strain [%]	Crystallite Size only [魔	Micro Strain only [%]
1	Cr2O3 0 2 4	23,8088(7)	1,020(2)	1877,87	60,33	 	1619(3)	0,199(3)	Included	1,160182	 	 	0,262078	0,984628	0,074719	0,063297	481,481100	2,033721	81,642780	2,286941

Note: README.md
# Methods
## RSM analysis

Check out [doc](documentation/RSM.md)

File: w6783r_scan_omega.xy
21.86360 71.0
21.87860 73.0
21.89360 67.0
21.90860 77.0
21.92360 60.0
21.93860 72.0
21.95360 75.0
21.96860 64.0
21.98360 90.0
21.99860 75.0
22.01360 84.0
22.02860 74.0
22.04360 82.0
22.05860 82.0
22.07360 91.0
22.08860 83.0
22.10360 85.0
22.11860 78.0
22.13360 94.0
22.14860 65.0
22.16360 99.0
22.17860 103.0
22.19360 87.0
22.20860 98.0
22.22360 104.0
22.23860 99.0
22.25360 107.0
22.26860 112.0
22.28360 95.0
22.29860 130.0
22.31360 116.0
22.32860 110.0
22.34360 116.0
22.35860 121.0
22.37360 114.0
22.38860 110.0
22.40360 141.0
22.41860 131.0
22.43360 139.0
22.44860 110.0
22.46360 136.0
22.47860 146.0
22.49360 149.0
22.50860 151.0
22.52360 159.0
22.53860 173.0
22.55360 181.0
22.56860 206.0
22.58360 173.0
22.59860 200.0
22.61360 193.0
22.62860 199.0
22.64360 222.0
22.65860 236.0
22.67360 242.0
22.68860 236.0
22.70360 227.0
22.71860 227.0
22.73360 249.0
22.74860 274.0
22.76360 257.0
22.77860 284.0
22.79360 311.0
22.80860 306.0
22.82360 281.0
22.83860 306.0
22.85360 363.0
22.86860 328.0
22.88360 362.0
22.89860 373.0
22.91360 382.0
22.92860 420.0
22.94360 437.0
22.95860 425.0
22.97360 486.0
22.98860 491.0
23.00360 475.0
23.01860 524.0
23.03360 546.0
23.04860 610.0
23.06360 619.0
23.07860 700.0
23.09360 605.0
23.10860 680.0
23.12360 754.0
23.13860 751.0
23.15360 774.0
23.16860 831.0
23.18360 899.0
23.19860 901.0
23.21360 927.0
23.22860 918.0
23.24360 965.0
23.25860 1081.0
23.27360 990.0
23.28860 1103.0
23.30360 1140.0
23.31860 1218.0
23.33360 1276.0
23.34860 1368.0
23.36360 1313.0
23.37860 1374.0
23.39360 1432.0
23.40860 1524.0
23.42360 1595.0
23.43860 1596.0
23.45360 1673.0
23.46860 1755.0
23.48360 1793.0
23.49860 1746.0
23.51360 1875.0
23.52860 1904.0
23.54360 2007.0
23.55860 1993.0
23.57360 2108.0
23.58860 2072.0
23.60360 2202.0
23.61860 2248.0
23.63360 2232.0
23.64860 2329.0
23.66360 2373.0
23.67860 2284.0
23.69360 2469.0
23.70860 2305.0
23.72360 2430.0
23.73860 2418.0
23.75360 2530.0
23.76860 2589.0
23.78360 2469.0
23.79860 2589.0
23.81360 2544.0
23.82860 2527.0
23.84360 2559.0
23.85860 2530.0
23.87360 2478.0
23.88860 2445.0
23.90360 2512.0
23.91860 2475.0
23.93360 2403.0
23.94860 2407.0
23.96360 2457.0
23.97860 2412.0
23.99360 2323.0
24.00860 2290.0
24.02360 2240.0
24.03860 2168.0
24.05360 2144.0
24.06860 2061.0
24.08360 2086.0
24.09860 2043.0
24.11360 2052.0
24.12860 1930.0
24.14360 1887.0
24.15860 1943.0
24.17360 1798.0
24.18860 1669.0
24.20360 1653.0
24.21860 1692.0
24.23360 1578.0
24.24860 1607.0
24.26360 1460.0
24.27860 1502.0
24.29360 1402.0
24.30860 1396.0
24.32360 1300.0
24.33860 1271.0
24.35360 1124.0
24.36860 1087.0
24.38360 1101.0
24.39860 1080.0
24.41360 1011.0
24.42860 944.0
24.44360 955.0
24.45860 892.0
24.47360 894.0
24.48860 766.0
24.50360 709.0
24.51860 770.0
24.53360 660.0
24.54860 644.0
24.56360 636.0
24.57860 629.0
24.59360 564.0
24.60860 560.0
24.62360 539.0
24.63860 483.0
24.65360 495.0
24.66860 452.0
24.68360 454.0
24.69860 424.0
24.71360 427.0
24.72860 389.0
24.74360 373.0
24.75860 327.0
24.77360 325.0
24.78860 353.0
24.80360 286.0
24.81860 272.0
24.83360 307.0
24.84860 310.0
24.86360 230.0
24.87860 247.0
24.89360 208.0
24.90860 212.0
24.92360 217.0
24.93860 220.0
24.95360 168.0
24.96860 179.0
24.98360 181.0
24.99860 147.0
25.01360 168.0
25.02860 144.0
25.04360 168.0
25.05860 156.0
25.07360 153.0
25.08860 137.0
25.10360 126.0
25.11860 107.0
25.13360 127.0
25.14860 100.0
25.16360 107.0
25.17860 99.0
25.19360 110.0
25.20860 111.0
25.22360 103.0
25.23860 97.0
25.25360 91.0
25.26860 98.0
25.28360 93.0
25.29860 111.0
25.31360 97.0
25.32860 101.0
25.34360 119.0
25.35860 106.0
25.37360 105.0
25.38860 105.0
25.40360 99.0
25.41860 93.0
25.43360 96.0
25.44860 121.0
25.46360 116.0
25.47860 88.0
25.49360 114.0
25.50860 130.0
25.52360 179.0
25.53860 107.0
25.55360 73.0
25.56860 66.0
25.58360 55.0
25.59860 48.0
25.61360 60.0
25.62860 59.0
25.64360 62.0
25.65860 36.0
25.67360 47.0
25.68860 47.0
25.70360 48.0
25.71860 39.0
25.73360 42.0
25.74860 48.0
25.76360 61.0
25.77860 38.0
25.79360 44.0
25.80360 38.0