Folder: DataAnalysis/data/W6905a/XRD_Omega

Note: data/W6905a/XRD_Omega/W6905a_omega_peaks.TXT
No.	Label	Pos. [記mega]	FWHM Left [記mega]	Area [cts*記mega]	Backgr.[cts]	d-spacing [魔	Height [cts]	Shape Left	Status	Integral Breadth [記mega]	FWHM Right [記mega]	Shape Right	Obs. Lorentz B [記mega]	Obs. Gauss B [記mega]	Instr. Lorentz B [記mega]	Instr. Gauss B [記mega]	Crystallite Size [魔	Micro Strain [%]	Crystallite Size only [魔	Micro Strain only [%]
1	Cr2O3 1 1 0	17,8926(7)	1,156(2)	3513,65	155,26	 	2320(4)	0,581(4)	Included	1,514309	 	 	0,937099	0,840265	0,075454	0,063918	103,705000	2,322213	60,987850	4,060976

Note: README.md
# Methods
## RSM analysis

Check out [doc](documentation/RSM.md)

File: scan_omega_4deg_step_0.005deg0_C6_1.xy
15.96910 267.0
15.98410 254.0
15.99910 266.0
16.01410 258.0
16.02910 254.0
16.04410 277.0
16.05910 305.0
16.07410 270.0
16.08910 283.0
16.10410 309.0
16.11910 313.0
16.13410 304.0
16.14910 326.0
16.16410 298.0
16.17910 329.0
16.19410 310.0
16.20910 329.0
16.22410 327.0
16.23910 367.0
16.25410 353.0
16.26910 326.0
16.28410 356.0
16.29910 373.0
16.31410 369.0
16.32910 375.0
16.34410 419.0
16.35910 401.0
16.37410 394.0
16.38910 425.0
16.40410 421.0
16.41910 443.0
16.43410 430.0
16.44910 424.0
16.46410 491.0
16.47910 448.0
16.49410 514.0
16.50910 456.0
16.52410 518.0
16.53910 483.0
16.55410 522.0
16.56910 539.0
16.58410 513.0
16.59910 621.0
16.61410 547.0
16.62910 627.0
16.64410 594.0
16.65910 577.0
16.67410 593.0
16.68910 613.0
16.70410 649.0
16.71910 687.0
16.73410 680.0
16.74910 705.0
16.76410 698.0
16.77910 712.0
16.79410 724.0
16.80910 762.0
16.82410 784.0
16.83910 826.0
16.85410 821.0
16.86910 867.0
16.88410 843.0
16.89910 905.0
16.91410 901.0
16.92910 914.0
16.94410 970.0
16.95910 972.0
16.97410 1005.0
16.98910 987.0
17.00410 1070.0
17.01910 1025.0
17.03410 1100.0
17.04910 1191.0
17.06410 1154.0
17.07910 1308.0
17.09410 1187.0
17.10910 1316.0
17.12410 1294.0
17.13910 1358.0
17.15410 1427.0
17.16910 1375.0
17.18410 1446.0
17.19910 1522.0
17.21410 1451.0
17.22910 1519.0
17.24410 1526.0
17.25910 1543.0
17.27410 1641.0
17.28910 1672.0
17.30410 1727.0
17.31910 1764.0
17.33410 1799.0
17.34910 1872.0
17.36410 1927.0
17.37910 1975.0
17.39410 2054.0
17.40910 2105.0
17.42410 2173.0
17.43910 2106.0
17.45410 2235.0
17.46910 2128.0
17.48410 2303.0
17.49910 2399.0
17.51410 2429.0
17.52910 2423.0
17.54410 2524.0
17.55910 2529.0
17.57410 2585.0
17.58910 2700.0
17.60410 2759.0
17.61910 2634.0
17.63410 2794.0
17.64910 2791.0
17.66410 2896.0
17.67910 2901.0
17.69410 2960.0
17.70910 2938.0
17.72410 3045.0
17.73910 3136.0
17.75410 3160.0
17.76910 3285.0
17.78410 3162.0
17.79910 3301.0
17.81410 3379.0
17.82910 3430.0
17.84410 3819.0
17.85910 4097.0
17.87410 4117.0
17.88910 4168.0
17.90410 4548.0
17.91910 5009.0
17.93410 5161.0
17.94910 5260.0
17.96410 5078.0
17.97910 5084.0
17.99410 4588.0
18.00910 4290.0
18.02410 3897.0
18.03910 3696.0
18.05410 3589.0
18.06910 3463.0
18.08410 3431.0
18.09910 3301.0
18.11410 3226.0
18.12910 3139.0
18.14410 3042.0
18.15910 2877.0
18.17410 2905.0
18.18910 2790.0
18.20410 2875.0
18.21910 2840.0
18.23410 2696.0
18.24910 2598.0
18.26410 2553.0
18.27910 2624.0
18.29410 2398.0
18.30910 2454.0
18.32410 2366.0
18.33910 2323.0
18.35410 2232.0
18.36910 2198.0
18.38410 2160.0
18.39910 2104.0
18.41410 2115.0
18.42910 2010.0
18.44410 1947.0
18.45910 1944.0
18.47410 1835.0
18.48910 1856.0
18.50410 1768.0
18.51910 1748.0
18.53410 1682.0
18.54910 1701.0
18.56410 1680.0
18.57910 1641.0
18.59410 1442.0
18.60910 1573.0
18.62410 1500.0
18.63910 1424.0
18.65410 1357.0
18.66910 1280.0
18.68410 1241.0
18.69910 1215.0
18.71410 1239.0
18.72910 1188.0
18.74410 1124.0
18.75910 1081.0
18.77410 1086.0
18.78910 1060.0
18.80410 1035.0
18.81910 1066.0
18.83410 961.0
18.84910 936.0
18.86410 967.0
18.87910 983.0
18.89410 844.0
18.90910 891.0
18.92410 836.0
18.93910 844.0
18.95410 778.0
18.96910 747.0
18.98410 788.0
18.99910 749.0
19.01410 708.0
19.02910 715.0
19.04410 696.0
19.05910 656.0
19.07410 684.0
19.08910 590.0
19.10410 583.0
19.11910 610.0
19.13410 603.0
19.14910 550.0
19.16410 574.0
19.17910 509.0
19.19410 498.0
19.20910 481.0
19.22410 497.0
19.23910 464.0
19.25410 459.0
19.26910 425.0
19.28410 439.0
19.29910 474.0
19.31410 428.0
19.32910 427.0
19.34410 411.0
19.35910 409.0
19.37410 406.0
19.38910 374.0
19.40410 395.0
19.41910 365.0
19.43410 337.0
19.44910 341.0
19.46410 344.0
19.47910 318.0
19.49410 313.0
19.50910 325.0
19.52410 300.0
19.53910 303.0
19.55410 340.0
19.56910 299.0
19.58410 282.0
19.59910 287.0
19.61410 268.0
19.62910 293.0
19.64410 249.0
19.65910 241.0
19.67410 247.0
19.68910 268.0
19.70410 247.0
19.71910 247.0
19.73410 218.0
19.74910 228.0
19.76410 231.0
19.77910 212.0
19.79410 228.0
19.80910 178.0
19.82410 218.0
19.83910 225.0
19.85410 214.0
19.86910 224.0
19.88410 205.0
19.89910 209.0
19.91410 177.0
19.92910 164.0