Folder: DataAnalysis/data/W6905a/XRD_2ThetaOmega

Note: data/W6905a/XRD_2ThetaOmega/W6905a_peaks.TXT
No.	Label	Pos. [°2Th.]	FWHM Left [°2Th.]	Area [cts*°2Th.]	Backgr.[cts]	d-spacing [Å]	Height [cts]	Shape Left	Status	Integral Breadth [°2Th.]	FWHM Right [°2Th.]	Shape Right	Obs. Lorentz B [°2Th.]	Obs. Gauss B [°2Th.]	Instr. Lorentz B [°2Th.]	Instr. Gauss B [°2Th.]	Crystallite Size [Å]	Micro Strain [%]	Crystallite Size only [Å]	Micro Strain only [%]
1	Cr2O3 1 1 0	35,5056(2)	0,1999(7)	1881,56	280,39	2,52631	7152(20)	0,594(5)	Included	0,263078	 	 	0,166003	0,143312	0,073960	0,062655	1006,956000	0,175661	478,581300	0,263937
2	Al2O3 1 1 0	37,67315(1)	0,04629(2)	22007,83	329,75	2,38579	395846(224)	0,3530(8)	Included	0,055597	 	 	0,021692	0,040659	0,073931	0,062631	-1785,354000	-0,060933	29489,590000	0,004045

Note: README.md
# Methods
## RSM analysis

Check out [doc](documentation/RSM.md)

File: scan_2th-om_a_Cr2O3_30-40deg_PIXscan_4min_6.xy
30.0025 125.0
30.0369 139.0
30.0714 121.0
30.1059 122.0
30.1403 136.0
30.1748 111.0
30.2093 123.0
30.2437 116.0
30.2782 133.0
30.3127 116.0
30.3471 115.0
30.3816 106.0
30.4161 133.0
30.4505 124.0
30.485 102.0
30.5195 109.0
30.5539 126.0
30.5884 143.0
30.6229 117.0
30.6573 116.0
30.6918 119.0
30.7263 128.0
30.7607 128.0
30.7952 120.0
30.8297 117.0
30.8641 127.0
30.8986 108.0
30.9331 123.0
30.9675 135.0
31.002 125.0
31.0365 136.0
31.0709 114.0
31.1054 108.0
31.1399 135.0
31.1743 123.0
31.2088 123.0
31.2433 128.0
31.2777 114.0
31.3122 107.0
31.3467 114.0
31.3811 114.0
31.4156 114.0
31.4501 143.0
31.4845 125.0
31.519 107.0
31.5535 123.0
31.5879 120.0
31.6224 136.0
31.6569 130.0
31.6913 130.0
31.7258 115.0
31.7603 119.0
31.7947 121.0
31.8292 128.0
31.8637 121.0
31.8981 126.0
31.9326 163.0
31.9671 149.0
32.0015 148.0
32.036 173.0
32.0705 134.0
32.1049 121.0
32.1394 141.0
32.1739 123.0
32.2083 124.0
32.2428 120.0
32.2773 109.0
32.3118 137.0
32.3462 134.0
32.3807 123.0
32.4152 123.0
32.4496 127.0
32.4841 119.0
32.5186 114.0
32.553 118.0
32.5875 128.0
32.622 144.0
32.6564 113.0
32.6909 119.0
32.7254 106.0
32.7598 123.0
32.7943 113.0
32.8288 140.0
32.8632 119.0
32.8977 108.0
32.9322 105.0
32.9666 108.0
33.0011 131.0
33.0356 129.0
33.07 120.0
33.1045 120.0
33.139 123.0
33.1734 124.0
33.2079 145.0
33.2424 138.0
33.2768 118.0
33.3113 129.0
33.3458 120.0
33.3802 131.0
33.4147 146.0
33.4492 127.0
33.4836 124.0
33.5181 146.0
33.5526 114.0
33.587 124.0
33.6215 171.0
33.656 133.0
33.6904 139.0
33.7249 167.0
33.7594 150.0
33.7938 164.0
33.8283 178.0
33.8628 224.0
33.8972 1249.0
33.9317 1363.0
33.9662 368.0
34.0006 216.0
34.0351 179.0
34.0696 185.0
34.104 171.0
34.1385 155.0
34.173 186.0
34.2074 161.0
34.2419 185.0
34.2764 184.0
34.3108 174.0
34.3453 174.0
34.3798 173.0
34.4142 161.0
34.4487 186.0
34.4832 195.0
34.5176 187.0
34.5521 211.0
34.5866 205.0
34.621 202.0
34.6555 213.0
34.69 235.0
34.7244 228.0
34.7589 261.0
34.7934 264.0
34.8278 242.0
34.8623 288.0
34.8968 279.0
34.9312 318.0
34.9657 359.0
35.0002 408.0
35.0346 393.0
35.0691 422.0
35.1036 467.0
35.138 517.0
35.1725 636.0
35.207 672.0
35.2414 824.0
35.2759 1128.0
35.3104 1454.0
35.3448 2078.0
35.3793 3046.0
35.4138 4763.0
35.4482 7048.0
35.4827 9041.0
35.5172 9782.0
35.5516 9499.0
35.5861 7841.0
35.6206 6310.0
35.655 4605.0
35.6895 3316.0
35.724 2339.0
35.7584 1773.0
35.7929 1454.0
35.8274 1272.0
35.8619 1077.0
35.8963 924.0
35.9308 874.0
35.9653 736.0
35.9997 715.0
36.0342 606.0
36.0687 583.0
36.1031 529.0
36.1376 484.0
36.1721 409.0
36.2065 477.0
36.241 400.0
36.2755 362.0
36.3099 370.0
36.3444 366.0
36.3789 370.0
36.4133 361.0
36.4478 323.0
36.4823 316.0
36.5167 321.0
36.5512 333.0
36.5857 309.0
36.6201 355.0
36.6546 351.0
36.6891 327.0
36.7235 359.0
36.758 369.0
36.7925 395.0
36.8269 403.0
36.8614 420.0
36.8959 450.0
36.9303 494.0
36.9648 488.0
36.9993 531.0
37.0337 544.0
37.0682 556.0
37.1027 638.0
37.1371 641.0
37.1716 695.0
37.2061 749.0
37.2405 792.0
37.275 882.0
37.3095 941.0
37.3439 1107.0
37.3784 1271.0
37.4129 1385.0
37.4473 2015.0
37.4818 3625.0
37.5163 5079.0
37.5507 5049.0
37.5852 7443.0
37.6197 23171.0
37.6541 286942.0
37.6886 311167.0
37.7231 41233.0
37.7575 173142.0
37.792 125401.0
37.8265 12728.0
37.8609 5464.0
37.8954 3441.0
37.9299 2476.0
37.9643 1997.0
37.9988 1667.0
38.0333 1514.0
38.0677 1325.0
38.1022 1091.0
38.1367 1094.0
38.1711 936.0
38.2056 844.0
38.2401 729.0
38.2745 675.0
38.309 591.0
38.3435 585.0
38.3779 491.0
38.4124 505.0
38.4469 429.0
38.4813 395.0
38.5158 392.0
38.5503 315.0
38.5847 325.0
38.6192 276.0
38.6537 229.0
38.6881 261.0
38.7226 279.0
38.7571 221.0
38.7915 190.0
38.826 229.0
38.8605 197.0
38.8949 193.0
38.9294 177.0
38.9639 219.0
38.9983 179.0
39.0328 166.0
39.0673 158.0
39.1017 165.0
39.1362 159.0
39.1707 170.0
39.2051 133.0
39.2396 147.0
39.2741 144.0
39.3085 144.0
39.343 139.0
39.3775 144.0
39.412 141.0
39.4464 152.0
39.4809 154.0
39.5154 130.0
39.5498 153.0
39.5843 138.0
39.6188 139.0
39.6532 122.0
39.6877 129.0
39.7222 148.0
39.7566 142.0
39.7911 159.0
39.8256 135.0
39.86 143.0
39.8945 115.0
39.929 128.0
39.9634 127.0
39.9979 135.0