Folder: DataAnalysis/data/W6779r/XRD_Omega

Note: data/W6779r/XRD_Omega/W6779r_omega_peaks.TXT
No.	Label	Pos. [記mega]	FWHM Left [記mega]	Area [cts*記mega]	Backgr.[cts]	d-spacing [魔	Height [cts]	Shape Left	Status	Integral Breadth [記mega]	FWHM Right [記mega]	Shape Right	Obs. Lorentz B [記mega]	Obs. Gauss B [記mega]	Instr. Lorentz B [記mega]	Instr. Gauss B [記mega]	Crystallite Size [魔	Micro Strain [%]	Crystallite Size only [魔	Micro Strain only [%]
1	Cr2O3 0 2 4	25,2604(7)	0,797(2)	1035,80	64,55	 	1150(3)	0,181(4)	Included	0,900973	 	 	0,185771	0,777064	0,074573	0,063173	813,496700	1,508101	106,857400	1,648388

Note: README.md
# Methods
## RSM analysis

Check out [doc](documentation/RSM.md)

File: scan_omega_4deg_step_0.005deg0_5.xy
23.25060 38.0
23.26560 28.0
23.28060 35.0
23.29560 32.0
23.31060 34.0
23.32560 35.0
23.34060 24.0
23.35560 34.0
23.37060 48.0
23.38560 21.0
23.40060 31.0
23.41560 35.0
23.43060 45.0
23.44560 49.0
23.46060 40.0
23.47560 24.0
23.49060 34.0
23.50560 36.0
23.52060 34.0
23.53560 48.0
23.55060 37.0
23.56560 28.0
23.58060 32.0
23.59560 40.0
23.61060 42.0
23.62560 51.0
23.64060 44.0
23.65560 41.0
23.67060 40.0
23.68560 32.0
23.70060 50.0
23.71560 35.0
23.73060 33.0
23.74560 39.0
23.76060 38.0
23.77560 39.0
23.79060 44.0
23.80560 48.0
23.82060 48.0
23.83560 34.0
23.85060 54.0
23.86560 43.0
23.88060 44.0
23.89560 51.0
23.91060 50.0
23.92560 37.0
23.94060 43.0
23.95560 57.0
23.97060 53.0
23.98560 50.0
24.00060 65.0
24.01560 43.0
24.03060 61.0
24.04560 59.0
24.06060 77.0
24.07560 66.0
24.09060 59.0
24.10560 59.0
24.12060 57.0
24.13560 59.0
24.15060 53.0
24.16560 82.0
24.18060 80.0
24.19560 74.0
24.21060 85.0
24.22560 86.0
24.24060 86.0
24.25560 77.0
24.27060 91.0
24.28560 93.0
24.30060 89.0
24.31560 93.0
24.33060 99.0
24.34560 93.0
24.36060 83.0
24.37560 112.0
24.39060 125.0
24.40560 122.0
24.42060 145.0
24.43560 131.0
24.45060 145.0
24.46560 148.0
24.48060 170.0
24.49560 173.0
24.51060 224.0
24.52560 195.0
24.54060 213.0
24.55560 230.0
24.57060 250.0
24.58560 235.0
24.60060 283.0
24.61560 302.0
24.63060 302.0
24.64560 309.0
24.66060 369.0
24.67560 342.0
24.69060 412.0
24.70560 394.0
24.72060 470.0
24.73560 499.0
24.75060 582.0
24.76560 550.0
24.78060 605.0
24.79560 651.0
24.81060 689.0
24.82560 789.0
24.84060 798.0
24.85560 857.0
24.87060 898.0
24.88560 979.0
24.90060 993.0
24.91560 1121.0
24.93060 1171.0
24.94560 1215.0
24.96060 1330.0
24.97560 1401.0
24.99060 1435.0
25.00560 1457.0
25.02060 1552.0
25.03560 1519.0
25.05060 1525.0
25.06560 1678.0
25.08060 1632.0
25.09560 1643.0
25.11060 1695.0
25.12560 1729.0
25.14060 1735.0
25.15560 1753.0
25.17060 1848.0
25.18560 1893.0
25.20060 1866.0
25.21560 1798.0
25.23060 1847.0
25.24560 1850.0
25.26060 1796.0
25.27560 1843.0
25.29060 1751.0
25.30560 1847.0
25.32060 1797.0
25.33560 1774.0
25.35060 1775.0
25.36560 1688.0
25.38060 1663.0
25.39560 1685.0
25.41060 1603.0
25.42560 1611.0
25.44060 1511.0
25.45560 1428.0
25.47060 1447.0
25.48560 1383.0
25.50060 1311.0
25.51560 1253.0
25.53060 1175.0
25.54560 1202.0
25.56060 1214.0
25.57560 1074.0
25.59060 1040.0
25.60560 986.0
25.62060 1037.0
25.63560 990.0
25.65060 962.0
25.66560 908.0
25.68060 823.0
25.69560 783.0
25.71060 778.0
25.72560 746.0
25.74060 718.0
25.75560 626.0
25.77060 660.0
25.78560 632.0
25.80060 577.0
25.81560 597.0
25.83060 573.0
25.84560 574.0
25.86060 533.0
25.87560 529.0
25.89060 438.0
25.90560 479.0
25.92060 437.0
25.93560 441.0
25.95060 441.0
25.96560 388.0
25.98060 348.0
25.99560 349.0
26.01060 368.0
26.02560 345.0
26.04060 342.0
26.05560 327.0
26.07060 306.0
26.08560 296.0
26.10060 280.0
26.11560 308.0
26.13060 298.0
26.14560 283.0
26.16060 293.0
26.17560 256.0
26.19060 280.0
26.20560 260.0
26.22060 250.0
26.23560 241.0
26.25060 247.0
26.26560 228.0
26.28060 227.0
26.29560 247.0
26.31060 226.0
26.32560 210.0
26.34060 204.0
26.35560 193.0
26.37060 188.0
26.38560 179.0
26.40060 200.0
26.41560 209.0
26.43060 188.0
26.44560 206.0
26.46060 216.0
26.47560 187.0
26.49060 191.0
26.50560 179.0
26.52060 171.0
26.53560 192.0
26.55060 172.0
26.56560 159.0
26.58060 171.0
26.59560 168.0
26.61060 123.0
26.62560 158.0
26.64060 151.0
26.65560 134.0
26.67060 139.0
26.68560 157.0
26.70060 131.0
26.71560 163.0
26.73060 153.0
26.74560 131.0
26.76060 150.0
26.77560 154.0
26.79060 125.0
26.80560 127.0
26.82060 108.0
26.83560 145.0
26.85060 136.0
26.86560 120.0
26.88060 125.0
26.89560 116.0
26.91060 111.0
26.92560 105.0
26.94060 103.0
26.95560 100.0
26.97060 98.0
26.98560 96.0
27.00060 71.0
27.01560 95.0
27.03060 91.0
27.04560 79.0
27.06060 88.0
27.07560 73.0
27.09060 86.0
27.10560 84.0
27.12060 80.0
27.13560 80.0
27.15060 72.0
27.16560 71.0
27.18060 85.0
27.19560 63.0
27.21060 81.0