Folder: DataAnalysis/data/W6779r/XRD_2ThetaOmega

Note: data/W6779r/XRD_2ThetaOmega/W6779r_peaks.TXT
No.	Label	Pos. [°2Th.]	FWHM Left [°2Th.]	Area calc.	Assignment	h	k	l	Multiplicity	F obs.	F calc.	Area [cts*°2Th.]	Derivation	Backgr.[cts]	d-spacing [Å]	Height [cts]	K-A2 / K-A1 Ratio	Matched	Matched by	Rel. Int. [%]	Source	Status	Integral Breadth [°2Th.]
1	Cr2O3 0 1 2	24,3499(3)	0,130(2)	0,00	 	0	1	2	 	0,000000	0,000000	309,65	Pure KA1	38,81	3,65249	1794(34)	0,500	False	 	3,98	Profile fitting	Included	0,172561
2	Al2O3 0 1 2	25,52371(3)	0,04711(9)	0,00	 	0	1	2	 	0,000000	0,000000	2417,96	Pure KA1	132,30	3,48711	45124(77)	0,500	False	 	100,00	Profile fitting	Included	0,053585
3	Cr2O3 0 2 4	49,9674(9)	0,213(4)	0,00	 	0	2	4	 	0,000000	0,000000	214,11	Pure KA1	2,55	1,82380	700(8)	0,500	False	 	1,55	Profile fitting	Included	0,305918
4	Al2O3 0 2 4	52,50152(3)	0,05395(7)	0,00	 	0	2	4	 	0,000000	0,000000	2845,69	Pure KA1	94,48	1,74157	44206(35)	0,500	False	 	97,97	Profile fitting	Included	0,064373
5	Cr2O3 0 3 6	78,67(1)	0,29(4)	0,00	 	0	3	6	 	0,000000	0,000000	15,05	Pure KA1	12,20	1,21525	33(6)	0,500	False	 	0,07	Profile fitting	Included	0,456397
6	Al2O3 0 3 6	83,1770(2)	0,0686(5)	0,00	 	0	3	6	 	0,000000	0,000000	173,58	Pure KA1	14,29	1,16048	2050(14)	0,500	False	 	4,54	Profile fitting	Included	0,084663
7	Al2O3 0 4 8	124,5904(1)	0,1007(5)	0,00	 	0	4	8	 	0,000000	0,000000	1199,68	Pure KA1	18,21	0,87005	8490(25)	0,500	False	 	18,81	Profile fitting	Included	0,141308

Note: README.md
# Methods
## RSM analysis

Check out [doc](documentation/RSM.md)

File: W6779r_absolute_2th-om_10-130deg_PIXscan_17min_2.xy
10.0035 9.0
10.4072 21.0
10.811 18.0
11.2147 18.0
11.6185 17.0
12.0222 22.0
12.426 11.0
12.8298 24.0
13.2335 22.0
13.6373 19.0
14.041 14.0
14.4448 22.0
14.8485 8.0
15.2523 10.0
15.656 19.0
16.0598 22.0
16.4636 15.0
16.8673 12.0
17.2711 17.0
17.6748 16.0
18.0786 19.0
18.4823 15.0
18.8861 10.0
19.2899 5.0
19.6936 13.0
20.0974 11.0
20.5011 13.0
20.9049 6.0
21.3086 9.0
21.7124 20.0
22.1161 11.0
22.5199 11.0
22.9237 13.0
23.3274 21.0
23.7312 40.0
24.1349 135.0
24.5387 210.0
24.9424 36.0
25.3462 176.0
25.75 310.0
26.1537 98.0
26.5575 30.0
26.9612 18.0
27.365 16.0
27.7687 12.0
28.1725 13.0
28.5762 15.0
28.98 12.0
29.3838 11.0
29.7875 15.0
30.1913 11.0
30.595 4.0
30.9988 5.0
31.4025 6.0
31.8063 14.0
32.2101 8.0
32.6138 8.0
33.0176 9.0
33.4213 8.0
33.8251 4.0
34.2288 8.0
34.6326 11.0
35.0363 6.0
35.4401 10.0
35.8439 9.0
36.2476 4.0
36.6514 1.0
37.0551 10.0
37.4589 7.0
37.8626 9.0
38.2664 3.0
38.6702 12.0
39.0739 12.0
39.4777 7.0
39.8814 10.0
40.2852 8.0
40.6889 7.0
41.0927 7.0
41.4964 9.0
41.9002 9.0
42.304 7.0
42.7077 5.0
43.1115 10.0
43.5152 9.0
43.919 10.0
44.3227 17.0
44.7265 11.0
45.1303 9.0
45.534 9.0
45.9378 11.0
46.3415 8.0
46.7453 9.0
47.149 43.0
47.5528 17.0
47.9565 14.0
48.3603 12.0
48.7641 11.0
49.1678 19.0
49.5716 50.0
49.9753 815.0
50.3791 58.0
50.7828 30.0
51.1866 18.0
51.5903 33.0
51.9941 71.0
52.3979 1006.0
52.8016 445.0
53.2054 120.0
53.6091 64.0
54.0129 42.0
54.4166 31.0
54.8204 22.0
55.2242 12.0
55.6279 14.0
56.0317 11.0
56.4354 4.0
56.8392 17.0
57.2429 12.0
57.6467 14.0
58.0504 9.0
58.4542 10.0
58.858 9.0
59.2617 9.0
59.6655 9.0
60.0692 9.0
60.473 13.0
60.8767 15.0
61.2805 7.0
61.6843 10.0
62.088 13.0
62.4918 15.0
62.8955 4.0
63.2993 7.0
63.703 11.0
64.1068 11.0
64.5105 8.0
64.9143 9.0
65.3181 16.0
65.7218 10.0
66.1256 8.0
66.5293 9.0
66.9331 4.0
67.3368 12.0
67.7406 10.0
68.1444 16.0
68.5481 7.0
68.9519 11.0
69.3556 12.0
69.7594 8.0
70.1631 13.0
70.5669 11.0
70.9706 9.0
71.3744 20.0
71.7782 9.0
72.1819 12.0
72.5857 7.0
72.9894 8.0
73.3932 18.0
73.7969 11.0
74.2007 8.0
74.6045 8.0
75.0082 10.0
75.412 7.0
75.8157 13.0
76.2195 15.0
76.6232 7.0
77.027 13.0
77.4307 10.0
77.8345 16.0
78.2383 13.0
78.642 60.0
79.0458 30.0
79.4495 13.0
79.8533 7.0
80.257 14.0
80.6608 11.0
81.0646 12.0
81.4683 18.0
81.8721 17.0
82.2758 10.0
82.6796 12.0
83.0833 103.0
83.4871 209.0
83.8908 12.0
84.2946 20.0
84.6984 12.0
85.1021 9.0
85.5059 13.0
85.9096 10.0
86.3134 12.0
86.7171 13.0
87.1209 12.0
87.5247 12.0
87.9284 4.0
88.3322 13.0
88.7359 12.0
89.1397 7.0
89.5434 10.0
89.9472 13.0
90.3509 10.0
90.7547 15.0
91.1585 15.0
91.5622 10.0
91.966 2.0
92.3697 10.0
92.7735 12.0
93.1772 13.0
93.581 14.0
93.9848 12.0
94.3885 13.0
94.7923 10.0
95.196 12.0
95.5998 8.0
96.0035 13.0
96.4073 13.0
96.811 10.0
97.2148 9.0
97.6186 10.0
98.0223 17.0
98.4261 13.0
98.8298 13.0
99.2336 4.0
99.6373 19.0
100.041 12.0
100.445 9.0
100.849 8.0
101.252 8.0
101.656 17.0
102.06 9.0
102.464 18.0
102.867 4.0
103.271 7.0
103.675 13.0
104.079 11.0
104.482 6.0
104.886 13.0
105.29 11.0
105.694 19.0
106.097 8.0
106.501 13.0
106.905 15.0
107.309 7.0
107.712 22.0
108.116 6.0
108.52 13.0
108.924 13.0
109.327 17.0
109.731 8.0
110.135 13.0
110.539 15.0
110.943 9.0
111.346 9.0
111.75 12.0
112.154 9.0
112.558 9.0
112.961 10.0
113.365 14.0
113.769 13.0
114.173 11.0
114.576 8.0
114.98 9.0
115.384 17.0
115.788 19.0
116.191 35.0
116.595 10.0
116.999 19.0
117.403 15.0
117.806 13.0
118.21 15.0
118.614 9.0
119.018 8.0
119.421 12.0
119.825 13.0
120.229 17.0
120.633 8.0
121.036 11.0
121.44 12.0
121.844 17.0
122.248 11.0
122.651 17.0
123.055 27.0
123.459 30.0
123.863 43.0
124.266 130.0
124.67 2258.0
125.074 1883.0
125.478 91.0
125.881 45.0
126.285 36.0
126.689 21.0
127.093 23.0
127.497 31.0
127.9 32.0
128.304 10.0
128.708 26.0
129.112 23.0
129.515 14.0
129.919 17.0
129.998 11.0