Folder: DataAnalysis/data/W6814c1/XRD_Omega

Note: data/W6814c1/XRD_Omega/W6814c1_omega_peaks.TXT
No.	Label	Pos. [記mega]	FWHM Left [記mega]	Area [cts*記mega]	Backgr.[cts]	d-spacing [魔	Height [cts]	Shape Left	Status	Integral Breadth [記mega]	FWHM Right [記mega]	Shape Right	Obs. Lorentz B [記mega]	Obs. Gauss B [記mega]	Instr. Lorentz B [記mega]	Instr. Gauss B [記mega]	Crystallite Size [魔	Micro Strain [%]	Crystallite Size only [魔	Micro Strain only [%]
1	Cr2O3 0 0 6	19,8812(6)	0,553(1)	839,82	32,00	 	1313(4)	0,248(4)	Included	0,639718	 	 	0,178533	0,518940	0,075183	0,063689	867,098600	1,282216	153,815500	1,450510

Note: README.md
# Methods
## RSM analysis

Check out [doc](documentation/RSM.md)

File: scan_omega_4deg_step_0.005deg0_C1.xy
17.92360 32.0
17.93860 36.0
17.95360 30.0
17.96860 29.0
17.98360 27.0
17.99860 29.0
18.01360 37.0
18.02860 38.0
18.04360 32.0
18.05860 29.0
18.07360 24.0
18.08860 26.0
18.10360 32.0
18.11860 27.0
18.13360 25.0
18.14860 25.0
18.16360 27.0
18.17860 26.0
18.19360 32.0
18.20860 30.0
18.22360 35.0
18.23860 36.0
18.25360 27.0
18.26860 31.0
18.28360 36.0
18.29860 41.0
18.31360 42.0
18.32860 38.0
18.34360 35.0
18.35860 45.0
18.37360 30.0
18.38860 35.0
18.40360 44.0
18.41860 30.0
18.43360 28.0
18.44860 38.0
18.46360 35.0
18.47860 34.0
18.49360 30.0
18.50860 46.0
18.52360 35.0
18.53860 42.0
18.55360 33.0
18.56860 42.0
18.58360 35.0
18.59860 46.0
18.61360 45.0
18.62860 35.0
18.64360 49.0
18.65860 42.0
18.67360 50.0
18.68860 43.0
18.70360 52.0
18.71860 42.0
18.73360 53.0
18.74860 49.0
18.76360 58.0
18.77860 48.0
18.79360 45.0
18.80860 47.0
18.82360 52.0
18.83860 55.0
18.85360 57.0
18.86860 42.0
18.88360 43.0
18.89860 52.0
18.91360 69.0
18.92860 54.0
18.94360 55.0
18.95860 55.0
18.97360 84.0
18.98860 95.0
19.00360 64.0
19.01860 70.0
19.03360 76.0
19.04860 77.0
19.06360 95.0
19.07860 86.0
19.09360 71.0
19.10860 85.0
19.12360 94.0
19.13860 117.0
19.15360 116.0
19.16860 138.0
19.18360 134.0
19.19860 114.0
19.21360 153.0
19.22860 163.0
19.24360 166.0
19.25860 157.0
19.27360 177.0
19.28860 191.0
19.30360 217.0
19.31860 222.0
19.33360 260.0
19.34860 256.0
19.36360 297.0
19.37860 315.0
19.39360 351.0
19.40860 340.0
19.42360 381.0
19.43860 350.0
19.45360 425.0
19.46860 441.0
19.48360 513.0
19.49860 521.0
19.51360 571.0
19.52860 575.0
19.54360 628.0
19.55860 686.0
19.57360 708.0
19.58860 821.0
19.60360 803.0
19.61860 966.0
19.63360 979.0
19.64860 992.0
19.66360 1091.0
19.67860 1233.0
19.69360 1284.0
19.70860 1357.0
19.72360 1452.0
19.73860 1522.0
19.75360 1600.0
19.76860 1721.0
19.78360 1715.0
19.79860 1849.0
19.81360 1983.0
19.82860 2025.0
19.84360 2076.0
19.85860 2076.0
19.87360 2118.0
19.88860 2182.0
19.90360 2191.0
19.91860 2114.0
19.93360 2031.0
19.94860 2053.0
19.96360 2006.0
19.97860 2026.0
19.99360 1917.0
20.00860 1810.0
20.02360 1834.0
20.03860 1724.0
20.05360 1619.0
20.06860 1516.0
20.08360 1447.0
20.09860 1341.0
20.11360 1253.0
20.12860 1116.0
20.14360 1068.0
20.15860 1018.0
20.17360 970.0
20.18860 900.0
20.20360 823.0
20.21860 751.0
20.23360 704.0
20.24860 647.0
20.26360 635.0
20.27860 537.0
20.29360 498.0
20.30860 494.0
20.32360 395.0
20.33860 401.0
20.35360 344.0
20.36860 391.0
20.38360 341.0
20.39860 327.0
20.41360 304.0
20.42860 260.0
20.44360 242.0
20.45860 239.0
20.47360 203.0
20.48860 194.0
20.50360 182.0
20.51860 149.0
20.53360 152.0
20.54860 139.0
20.56360 157.0
20.57860 151.0
20.59360 133.0
20.60860 103.0
20.62360 126.0
20.63860 101.0
20.65360 107.0
20.66860 85.0
20.68360 87.0
20.69860 95.0
20.71360 103.0
20.72860 84.0
20.74360 79.0
20.75860 84.0
20.77360 78.0
20.78860 73.0
20.80360 69.0
20.81860 72.0
20.83360 60.0
20.84860 53.0
20.86360 70.0
20.87860 52.0
20.89360 49.0
20.90860 61.0
20.92360 51.0
20.93860 66.0
20.95360 52.0
20.96860 55.0
20.98360 48.0
20.99860 39.0
21.01360 48.0
21.02860 60.0
21.04360 51.0
21.05860 31.0
21.07360 47.0
21.08860 40.0
21.10360 39.0
21.11860 38.0
21.13360 48.0
21.14860 42.0
21.16360 31.0
21.17860 44.0
21.19360 30.0
21.20860 43.0
21.22360 33.0
21.23860 42.0
21.25360 28.0
21.26860 47.0
21.28360 26.0
21.29860 41.0
21.31360 31.0
21.32860 40.0
21.34360 28.0
21.35860 45.0
21.37360 37.0
21.38860 24.0
21.40360 29.0
21.41860 33.0
21.43360 35.0
21.44860 40.0
21.46360 32.0
21.47860 24.0
21.49360 25.0
21.50860 28.0
21.52360 47.0
21.53860 38.0
21.55360 35.0
21.56860 34.0
21.58360 31.0
21.59860 29.0
21.61360 31.0
21.62860 35.0
21.64360 30.0
21.65860 32.0
21.67360 20.0
21.68860 32.0
21.70360 36.0
21.71860 34.0
21.73360 30.0
21.74860 44.0
21.76360 32.0
21.77860 23.0
21.79360 25.0
21.80860 27.0
21.82360 32.0
21.83860 31.0
21.85360 28.0
21.86860 27.0
21.88360 32.0