Folder: DataAnalysis/data/W6726/XRD_2ThetaOmega

Note: data/W6726/XRD_2ThetaOmega/W6726_peaks.TXT
No.	Label	Pos. [°2Th.]	FWHM Left [°2Th.]	Area [cts*°2Th.]	Backgr.[cts]	d-spacing [Å]	Height [cts]	Shape Left	Status	Integral Breadth [°2Th.]	FWHM Right [°2Th.]	Shape Right	Obs. Lorentz B [°2Th.]	Obs. Gauss B [°2Th.]	Instr. Lorentz B [°2Th.]	Instr. Gauss B [°2Th.]	Crystallite Size [Å]	Micro Strain [%]	Crystallite Size only [Å]	Micro Strain only [%]
1	Cr2O3 3 0 0	64,3576(1)	0,4497(3)	10328,85	479,96	1,44640	16907(26)	0,671(1)	Included	0,610928	 	 	0,430687	0,293567	0,077286	0,065476	295,103000	0,198447	190,236100	0,380159
2	Al2O3 3 0 0	68,143220(6)	0,05945(2)	54691,72	793,84	1,37497	713585(180)	0,5407(3)	Included	0,076644	 	 	0,044434	0,044971	0,078464	0,066473	-3131,474000	-0,031581	33694,240000	0,002040

Note: README.md
# Methods
## RSM analysis

Check out [doc](documentation/RSM.md)

File: W6726_absolute_2th-om_10-130deg_17min.xy
10.0035 28.0
10.4072 28.0
10.811 29.0
11.2147 31.0
11.6185 21.0
12.0222 21.0
12.426 22.0
12.8298 16.0
13.2335 22.0
13.6373 17.0
14.041 27.0
14.4448 23.0
14.8485 21.0
15.2523 23.0
15.656 17.0
16.0598 4.0
16.4636 11.0
16.8673 14.0
17.2711 14.0
17.6748 15.0
18.0786 14.0
18.4823 17.0
18.8861 16.0
19.2899 17.0
19.6936 13.0
20.0974 3.0
20.5011 11.0
20.9049 9.0
21.3086 8.0
21.7124 10.0
22.1161 4.0
22.5199 7.0
22.9237 6.0
23.3274 13.0
23.7312 5.0
24.1349 8.0
24.5387 6.0
24.9424 10.0
25.3462 3.0
25.75 6.0
26.1537 9.0
26.5575 8.0
26.9612 10.0
27.365 11.0
27.7687 4.0
28.1725 8.0
28.5762 4.0
28.98 6.0
29.3838 4.0
29.7875 5.0
30.1913 6.0
30.595 4.0
30.9988 3.0
31.4025 3.0
31.8063 4.0
32.2101 5.0
32.6138 4.0
33.0176 6.0
33.4213 6.0
33.8251 8.0
34.2288 2.0
34.6326 5.0
35.0363 7.0
35.4401 6.0
35.8439 7.0
36.2476 6.0
36.6514 8.0
37.0551 1.0
37.4589 1.0
37.8626 3.0
38.2664 3.0
38.6702 0.0
39.0739 2.0
39.4777 0.0
39.8814 5.0
40.2852 6.0
40.6889 3.0
41.0927 3.0
41.4964 7.0
41.9002 3.0
42.304 1.0
42.7077 5.0
43.1115 2.0
43.5152 4.0
43.919 7.0
44.3227 2.0
44.7265 4.0
45.1303 2.0
45.534 3.0
45.9378 3.0
46.3415 3.0
46.7453 2.0
47.149 3.0
47.5528 7.0
47.9565 4.0
48.3603 3.0
48.7641 1.0
49.1678 4.0
49.5716 5.0
49.9753 3.0
50.3791 5.0
50.7828 1.0
51.1866 0.0
51.5903 3.0
51.9941 6.0
52.3979 5.0
52.8016 10.0
53.2054 5.0
53.6091 10.0
54.0129 8.0
54.4166 6.0
54.8204 9.0
55.2242 3.0
55.6279 6.0
56.0317 4.0
56.4354 1.0
56.8392 3.0
57.2429 5.0
57.6467 11.0
58.0504 4.0
58.4542 0.0
58.858 2.0
59.2617 1.0
59.6655 3.0
60.0692 3.0
60.473 3.0
60.8767 70.0
61.2805 19.0
61.6843 12.0
62.088 6.0
62.4918 15.0
62.8955 13.0
63.2993 29.0
63.703 59.0
64.1068 351.0
64.5105 766.0
64.9143 288.0
65.3181 36.0
65.7218 24.0
66.1256 25.0
66.5293 26.0
66.9331 27.0
67.3368 70.0
67.7406 215.0
68.1444 39156.0
68.5481 400.0
68.9519 104.0
69.3556 38.0
69.7594 36.0
70.1631 12.0
70.5669 9.0
70.9706 8.0
71.3744 6.0
71.7782 7.0
72.1819 9.0
72.5857 8.0
72.9894 4.0
73.3932 4.0
73.7969 4.0
74.2007 1.0
74.6045 5.0
75.0082 4.0
75.412 4.0
75.8157 4.0
76.2195 3.0
76.6232 0.0
77.027 4.0
77.4307 5.0
77.8345 5.0
78.2383 3.0
78.642 2.0
79.0458 0.0
79.4495 4.0
79.8533 2.0
80.257 7.0
80.6608 2.0
81.0646 1.0
81.4683 4.0
81.8721 5.0
82.2758 5.0
82.6796 0.0
83.0833 6.0
83.4871 6.0
83.8908 6.0
84.2946 5.0
84.6984 0.0
85.1021 1.0
85.5059 6.0
85.9096 4.0
86.3134 7.0
86.7171 0.0
87.1209 0.0
87.5247 3.0
87.9284 2.0
88.3322 4.0
88.7359 4.0
89.1397 1.0
89.5434 4.0
89.9472 2.0
90.3509 4.0
90.7547 3.0
91.1585 2.0
91.5622 0.0
91.966 0.0
92.3697 3.0
92.7735 2.0
93.1772 3.0
93.581 2.0
93.9848 1.0
94.3885 3.0
94.7923 3.0
95.196 4.0
95.5998 4.0
96.0035 3.0
96.4073 3.0
96.811 2.0
97.2148 6.0
97.6186 5.0
98.0223 2.0
98.4261 0.0
98.8298 0.0
99.2336 4.0
99.6373 4.0
100.041 6.0
100.445 0.0
100.849 3.0
101.252 2.0
101.656 2.0
102.06 1.0
102.464 3.0
102.867 1.0
103.271 0.0
103.675 0.0
104.079 0.0
104.482 6.0
104.886 6.0
105.29 2.0
105.694 1.0
106.097 2.0
106.501 1.0
106.905 4.0
107.309 2.0
107.712 2.0
108.116 0.0
108.52 2.0
108.924 3.0
109.327 3.0
109.731 2.0
110.135 2.0
110.539 0.0
110.943 2.0
111.346 2.0
111.75 4.0
112.154 0.0
112.558 0.0
112.961 4.0
113.365 2.0
113.769 4.0
114.173 1.0
114.576 3.0
114.98 3.0
115.384 2.0
115.788 5.0
116.191 0.0
116.595 5.0
116.999 5.0
117.403 3.0
117.806 1.0
118.21 2.0
118.614 1.0
119.018 1.0
119.421 1.0
119.825 2.0
120.229 0.0
120.633 3.0
121.036 0.0
121.44 1.0
121.844 5.0
122.248 0.0
122.651 3.0
123.055 3.0
123.459 4.0
123.863 4.0
124.266 3.0
124.67 3.0
125.074 6.0
125.478 1.0
125.881 0.0
126.285 1.0
126.689 2.0
127.093 5.0
127.497 3.0
127.9 0.0
128.304 1.0
128.708 2.0
129.112 2.0
129.515 1.0
129.919 3.0
129.998 6.0

File: W6726_absolute_2th-om_58-72deg-20min_6.xy
58.0028 287.0
58.0496 293.0
58.0964 280.0
58.1432 286.0
58.1899 286.0
58.2367 268.0
58.2835 278.0
58.3303 258.0
58.377 307.0
58.4238 266.0
58.4706 297.0
58.5174 298.0
58.5642 257.0
58.6109 309.0
58.6577 285.0
58.7045 271.0
58.7513 297.0
58.798 278.0
58.8448 295.0
58.8916 258.0
58.9384 260.0
58.9851 282.0
59.0319 279.0
59.0787 280.0
59.1255 293.0
59.1722 282.0
59.219 260.0
59.2658 268.0
59.3126 262.0
59.3594 266.0
59.4061 287.0
59.4529 306.0
59.4997 307.0
59.5465 288.0
59.5932 325.0
59.64 297.0
59.6868 283.0
59.7336 215.0
59.7803 269.0
59.8271 307.0
59.8739 296.0
59.9207 278.0
59.9674 293.0
60.0142 292.0
60.061 287.0
60.1078 294.0
60.1546 293.0
60.2013 257.0
60.2481 321.0
60.2949 319.0
60.3417 315.0
60.3884 323.0
60.4352 311.0
60.482 332.0
60.5288 314.0
60.5755 312.0
60.6223 323.0
60.6691 366.0
60.7159 466.0
60.7627 899.0
60.8094 2409.0
60.8562 1831.0
60.903 1286.0
60.9498 654.0
60.9965 496.0
61.0433 414.0
61.0901 407.0
61.1369 403.0
61.1836 450.0
61.2304 429.0
61.2772 471.0
61.324 485.0
61.3707 520.0
61.4175 447.0
61.4643 467.0
61.5111 468.0
61.5579 444.0
61.6046 453.0
61.6514 402.0
61.6982 373.0
61.745 360.0
61.7917 425.0
61.8385 359.0
61.8853 346.0
61.9321 424.0
61.9788 408.0
62.0256 374.0
62.0724 375.0
62.1192 382.0
62.166 364.0
62.2127 358.0
62.2595 374.0
62.3063 401.0
62.3531 377.0
62.3998 392.0
62.4466 426.0
62.4934 383.0
62.5402 401.0
62.5869 403.0
62.6337 391.0
62.6805 408.0
62.7273 407.0
62.774 439.0
62.8208 456.0
62.8676 467.0
62.9144 472.0
62.9612 462.0
63.0079 483.0
63.0547 529.0
63.1015 499.0
63.1483 563.0
63.195 512.0
63.2418 579.0
63.2886 618.0
63.3354 647.0
63.3821 697.0
63.4289 793.0
63.4757 800.0
63.5225 880.0
63.5693 957.0
63.616 1066.0
63.6628 1275.0
63.7096 1482.0
63.7564 1737.0
63.8031 2077.0
63.8499 2487.0
63.8967 3158.0
63.9435 3919.0
63.9902 4974.0
64.037 6364.0
64.0838 8321.0
64.1306 10643.0
64.1773 13332.0
64.2241 16258.0
64.2709 19066.0
64.3177 21655.0
64.3645 23692.0
64.4112 24301.0
64.458 23023.0
64.5048 20514.0
64.5516 18090.0
64.5983 15683.0
64.6451 12738.0
64.6919 10032.0
64.7387 7982.0
64.7854 6363.0
64.8322 5478.0
64.879 5379.0
64.9258 7253.0
64.9725 6101.0
65.0193 3576.0
65.0661 2498.0
65.1129 2281.0
65.1597 1783.0
65.2064 1664.0
65.2532 1470.0
65.3 1331.0
65.3468 1277.0
65.3935 1151.0
65.4403 1348.0
65.4871 1792.0
65.5339 1200.0
65.5806 966.0
65.6274 834.0
65.6742 719.0
65.721 780.0
65.7678 745.0
65.8145 660.0
65.8613 657.0
65.9081 700.0
65.9549 637.0
66.0016 629.0
66.0484 617.0
66.0952 666.0
66.142 716.0
66.1887 691.0
66.2355 637.0
66.2823 628.0
66.3291 678.0
66.3758 676.0
66.4226 700.0
66.4694 713.0
66.5162 741.0
66.563 695.0
66.6097 770.0
66.6565 741.0
66.7033 782.0
66.7501 839.0
66.7968 829.0
66.8436 895.0
66.8904 914.0
66.9372 912.0
66.9839 937.0
67.0307 1050.0
67.0775 1047.0
67.1243 1081.0
67.1711 1141.0
67.2178 1213.0
67.2646 1256.0
67.3114 1328.0
67.3582 1406.0
67.4049 1578.0
67.4517 1616.0
67.4985 1720.0
67.5453 1897.0
67.592 2082.0
67.6388 2279.0
67.6856 2855.0
67.7324 3824.0
67.7791 5860.0
67.8259 6839.0
67.8727 6727.0
67.9195 7087.0
67.9663 9558.0
68.013 16310.0
68.0598 38612.0
68.1066 272927.0
68.1534 646122.0
68.2001 101532.0
68.2469 38823.0
68.2937 114135.0
68.3405 334047.0
68.3872 74757.0
68.434 19170.0
68.4808 10620.0
68.5276 7592.0
68.5743 5882.0
68.6211 4695.0
68.6679 4085.0
68.7147 3557.0
68.7615 3223.0
68.8082 2730.0
68.855 2598.0
68.9018 2304.0
68.9486 2158.0
68.9953 1997.0
69.0421 1884.0
69.0889 1751.0
69.1357 1703.0
69.1824 1560.0
69.2292 1472.0
69.276 1409.0
69.3228 1260.0
69.3696 1322.0
69.4163 1111.0
69.4631 1092.0
69.5099 1100.0
69.5567 1058.0
69.6034 987.0
69.6502 911.0
69.697 898.0
69.7438 821.0
69.7905 813.0
69.8373 800.0
69.8841 736.0
69.9309 711.0
69.9776 692.0
70.0244 640.0
70.0712 649.0
70.118 643.0
70.1648 644.0
70.2115 597.0
70.2583 577.0
70.3051 530.0
70.3519 529.0
70.3986 500.0
70.4454 485.0
70.4922 482.0
70.539 494.0
70.5857 466.0
70.6325 444.0
70.6793 445.0
70.7261 444.0
70.7729 432.0
70.8196 452.0
70.8664 414.0
70.9132 404.0
70.96 429.0
71.0067 410.0
71.0535 389.0
71.1003 405.0
71.1471 409.0
71.1938 393.0
71.2406 390.0
71.2874 430.0
71.3342 386.0
71.3809 402.0
71.4277 366.0
71.4745 404.0
71.5213 335.0
71.5681 380.0
71.6148 347.0
71.6616 358.0
71.7084 348.0
71.7552 397.0
71.8019 327.0
71.8487 341.0
71.8955 341.0
71.9423 318.0
71.989 332.0
71.9989 325.0