Folder: DataAnalysis/data/W6726/XRD_Phi

Note: README.md
# Methods
## RSM analysis

Check out [doc](documentation/RSM.md)

File: W6726_Al2O3_phi_360deg_25min_3mm_active_5.xy
-305.665 65.000
-304.465 61.000
-303.265 64.000
-302.065 57.000
-300.865 44.000
-299.665 54.000
-298.465 56.000
-297.265 73.000
-296.065 60.000
-294.865 55.000
-293.665 70.000
-292.465 55.000
-291.265 58.000
-290.065 46.000
-288.865 60.000
-287.665 64.000
-286.465 54.000
-285.265 55.000
-284.065 51.000
-282.865 60.000
-281.665 58.000
-280.465 51.000
-279.265 31.000
-278.065 53.000
-276.865 58.000
-275.665 41.000
-274.465 60.000
-273.265 56.000
-272.065 50.000
-270.865 55.000
-269.665 47.000
-268.465 56.000
-267.265 56.000
-266.065 51.000
-264.865 48.000
-263.665 43.000
-262.465 58.000
-261.265 70.000
-260.065 59.000
-258.865 67.000
-257.665 65.000
-256.465 69.000
-255.265 67.000
-254.065 63.000
-252.865 66.000
-251.665 46.000
-250.465 49.000
-249.265 59.000
-248.065 53.000
-246.865 56.000
-245.665 62.000
-244.465 66.000
-243.265 62.000
-242.065 78.000
-240.865 58.000
-239.665 75.000
-238.465 48.000
-237.265 59.000
-236.065 53.000
-234.865 59.000
-233.665 80.000
-232.465 7814.000
-231.265 77.000
-230.065 76.000
-228.865 68.000
-227.665 54.000
-226.465 52.000
-225.265 57.000
-224.065 51.000
-222.865 61.000
-221.665 47.000
-220.465 47.000
-219.265 45.000
-218.065 49.000
-216.865 57.000
-215.665 52.000
-214.465 44.000
-213.265 43.000
-212.065 45.000
-210.865 53.000
-209.665 47.000
-208.465 45.000
-207.265 45.000
-206.065 53.000
-204.865 49.000
-203.665 54.000
-202.465 50.000
-201.265 56.000
-200.065 46.000
-198.865 54.000
-197.665 45.000
-196.465 46.000
-195.265 49.000
-194.065 47.000
-192.865 40.000
-191.665 40.000
-190.465 50.000
-189.265 47.000
-188.065 51.000
-186.865 35.000
-185.665 36.000
-184.465 46.000
-183.265 38.000
-182.065 41.000
-180.865 50.000
-179.665 45.000
-178.465 49.000
-177.265 47.000
-176.065 40.000
-174.865 44.000
-173.665 51.000
-172.465 52.000
-171.265 41.000
-170.065 45.000
-168.865 37.000
-167.665 35.000
-166.465 24.000
-165.265 31.000
-164.065 31.000
-162.865 33.000
-161.665 36.000
-160.465 24.000
-159.265 32.000
-158.065 29.000
-156.865 29.000
-155.665 37.000
-154.465 34.000
-153.265 28.000
-152.065 29.000
-150.865 38.000
-149.665 37.000
-148.465 38.000
-147.265 41.000
-146.065 46.000
-144.865 47.000
-143.665 45.000
-142.465 34.000
-141.265 46.000
-140.065 50.000
-138.865 49.000
-137.665 39.000
-136.465 40.000
-135.265 44.000
-134.065 51.000
-132.865 52.000
-131.665 49.000
-130.465 60.000
-129.265 59.000
-128.065 72.000
-126.865 70.000
-125.665 91.000
-124.465 69.000
-123.265 61.000
-122.065 62.000
-120.865 57.000
-119.665 52.000
-118.465 59.000
-117.265 52.000
-116.065 37.000
-114.865 65.000
-113.665 46.000
-112.465 64.000
-111.265 60.000
-110.065 46.000
-108.865 53.000
-107.665 52.000
-106.465 52.000
-105.265 44.000
-104.065 45.000
-102.865 40.000
-101.665 34.000
-100.465 60.000
-99.26500 45.000
-98.06500 51.000
-96.86500 60.000
-95.66500 54.000
-94.46500 43.000
-93.26500 48.000
-92.06500 52.000
-90.86500 54.000
-89.66500 51.000
-88.46500 39.000
-87.26500 58.000
-86.06500 58.000
-84.86500 68.000
-83.66500 49.000
-82.46500 59.000
-81.26500 83.000
-80.06500 69.000
-78.86500 57.000
-77.66500 68.000
-76.46500 54.000
-75.26500 52.000
-74.06500 53.000
-72.86500 56.000
-71.66500 61.000
-70.46500 62.000
-69.26500 64.000
-68.06500 61.000
-66.86500 59.000
-65.66500 46.000
-64.46500 51.000
-63.26500 69.000
-62.06500 75.000
-60.86500 52.000
-59.66500 56.000
-58.46500 63.000
-57.26500 52.000
-56.06500 60.000
-54.86500 47.000
-53.66500 49.000
-52.46500 43.000
-51.26500 57.000
-50.06500 62.000
-48.86500 48.000
-47.66500 60.000
-46.46500 53.000
-45.26500 52.000
-44.06500 59.000
-42.86500 58.000
-41.66500 44.000
-40.46500 60.000
-39.26500 50.000
-38.06500 46.000
-36.86500 52.000
-35.66500 43.000
-34.46500 55.000
-33.26500 48.000
-32.06500 44.000
-30.86500 34.000
-29.66500 34.000
-28.46500 53.000
-27.26500 43.000
-26.06500 48.000
-24.86500 43.000
-23.66500 32.000
-22.46500 42.000
-21.26500 45.000
-20.06500 48.000
-18.86500 52.000
-17.66500 43.000
-16.46500 46.000
-15.26500 42.000
-14.06500 49.000
-12.86500 40.000
-11.66500 38.000
-10.46500 57.000
-9.26500 47.000
-8.06500 54.000
-6.86500 34.000
-5.66500 43.000
-4.46500 48.000
-3.26500 42.000
-2.06500 42.000
-0.86500 28.000
0.33500 34.000
1.53500 47.000
2.73500 38.000
3.93500 39.000
5.13500 29.000
6.33500 35.000
7.53500 30.000
8.73500 30.000
9.93500 35.000
11.13500 36.000
12.33500 30.000
13.53500 32.000
14.73500 36.000
15.93500 35.000
17.13500 30.000
18.33500 29.000
19.53500 28.000
20.73500 32.000
21.93500 33.000
23.13500 31.000
24.33500 34.000
25.53500 30.000
26.73500 48.000
27.93500 33.000
29.13500 35.000
30.33500 43.000
31.53500 49.000
32.73500 43.000
33.93500 60.000
35.13500 55.000
36.33500 42.000
37.53500 44.000
38.73500 51.000
39.93500 52.000
41.13500 40.000
42.33500 50.000
43.53500 54.000
44.73500 56.000
45.93500 51.000
47.13500 52.000
48.33500 55.000
49.53500 57.000
50.73500 58.000
51.93500 53.000
53.13500 65.000
54.23500 63.000