Folder: DataAnalysis/data/W6726/XRD_Omega

Note: data/W6726/XRD_Omega/W6726_omega_peaks.TXT
No.	Label	Pos. [記mega]	FWHM Left [記mega]	Area [cts*記mega]	Backgr.[cts]	d-spacing [魔	Height [cts]	Shape Left	Status	Integral Breadth [記mega]	FWHM Right [記mega]	Shape Right	Obs. Lorentz B [記mega]	Obs. Gauss B [記mega]	Instr. Lorentz B [記mega]	Instr. Gauss B [記mega]	Crystallite Size [魔	Micro Strain [%]	Crystallite Size only [魔	Micro Strain only [%]
1	Cr2O3 3 0 0	32,670(1)	0,80(9)	10702,86	3061,04	 	10805(1813)	0,4(2)	Included	0,990568	 	 	0,457261	0,671968	0,074053	0,062734	240,033300	0,996034	98,492310	1,390371

Note: README.md
# Methods
## RSM analysis

Check out [doc](documentation/RSM.md)

File: W6726_Cr2O3_scan_omega_2deg_step_0.002deg0_5.xy
31.70750 2311.0
31.71550 2380.0
31.72350 2378.0
31.73150 2500.0
31.73950 2524.0
31.74750 2602.0
31.75550 2794.0
31.76350 2792.0
31.77150 2829.0
31.77950 2888.0
31.78750 2897.0
31.79550 2979.0
31.80350 3059.0
31.81150 3182.0
31.81950 3244.0
31.82750 3275.0
31.83550 3409.0
31.84350 3450.0
31.85150 3404.0
31.85950 3594.0
31.86750 3733.0
31.87550 3776.0
31.88350 3818.0
31.89150 4044.0
31.89950 4139.0
31.90750 4205.0
31.91550 4194.0
31.92350 4295.0
31.93150 4262.0
31.93950 4672.0
31.94750 4726.0
31.95550 4727.0
31.96350 4944.0
31.97150 4974.0
31.97950 5145.0
31.98750 5206.0
31.99550 5450.0
32.00350 5520.0
32.01150 5680.0
32.01950 5755.0
32.02750 5847.0
32.03550 6125.0
32.04350 6117.0
32.05150 6546.0
32.05950 6428.0
32.06750 6457.0
32.07550 6684.0
32.08350 6745.0
32.09150 6954.0
32.09950 7041.0
32.10750 7343.0
32.11550 7505.0
32.12350 7539.0
32.13150 7862.0
32.13950 8105.0
32.14750 8090.0
32.15550 8356.0
32.16350 8413.0
32.17150 8471.0
32.17950 8753.0
32.18750 9026.0
32.19550 9182.0
32.20350 9276.0
32.21150 9507.0
32.21950 9889.0
32.22750 9914.0
32.23550 10086.0
32.24350 10442.0
32.25150 10436.0
32.25950 10748.0
32.26750 11027.0
32.27550 11182.0
32.28350 11380.0
32.29150 11691.0
32.29950 11952.0
32.30750 11821.0
32.31550 12293.0
32.32350 12466.0
32.33150 12570.0
32.33950 12512.0
32.34750 12825.0
32.35550 13215.0
32.36350 13211.0
32.37150 13440.0
32.37950 13643.0
32.38750 13791.0
32.39550 13951.0
32.40350 14283.0
32.41150 14568.0
32.41950 14493.0
32.42750 14749.0
32.43550 15078.0
32.44350 15175.0
32.45150 15256.0
32.45950 15629.0
32.46750 15555.0
32.47550 15655.0
32.48350 16100.0
32.49150 16110.0
32.49950 16302.0
32.50750 16646.0
32.51550 16938.0
32.52350 17062.0
32.53150 17156.0
32.53950 17329.0
32.54750 17410.0
32.55550 17592.0
32.56350 17600.0
32.57150 18169.0
32.57950 17843.0
32.58750 18102.0
32.59550 18528.0
32.60350 18294.0
32.61150 18344.0
32.61950 18681.0
32.62750 18449.0
32.63550 18891.0
32.64350 18786.0
32.65150 18798.0
32.65950 18656.0
32.66750 18746.0
32.67550 19285.0
32.68350 18950.0
32.69150 19047.0
32.69950 18949.0
32.70750 19180.0
32.71550 19099.0
32.72350 19134.0
32.73150 18906.0
32.73950 18644.0
32.74750 18565.0
32.75550 18675.0
32.76350 18446.0
32.77150 18675.0
32.77950 18722.0
32.78750 18902.0
32.79550 18554.0
32.80350 18119.0
32.81150 17605.0
32.81950 18070.0
32.82750 18047.0
32.83550 17729.0
32.84350 17560.0
32.85150 17427.0
32.85950 17178.0
32.86750 16815.0
32.87550 16628.0
32.88350 16574.0
32.89150 16368.0
32.89950 16340.0
32.90750 16182.0
32.91550 15752.0
32.92350 15504.0
32.93150 15435.0
32.93950 14831.0
32.94750 14827.0
32.95550 14665.0
32.96350 14630.0
32.97150 14226.0
32.97950 13743.0
32.98750 13429.0
32.99550 13253.0
33.00350 12961.0
33.01150 12821.0
33.01950 12550.0
33.02750 12540.0
33.03550 12010.0
33.04350 11693.0
33.05150 11668.0
33.05950 11339.0
33.06750 11287.0
33.07550 10691.0
33.08350 10264.0
33.09150 10108.0
33.09950 10034.0
33.10750 9665.0
33.11550 9479.0
33.12350 9295.0
33.13150 9345.0
33.13950 8693.0
33.14750 8544.0
33.15550 8327.0
33.16350 8296.0
33.17150 8053.0
33.17950 7876.0
33.18750 7658.0
33.19550 7504.0
33.20350 7281.0
33.21150 7067.0
33.21950 6952.0
33.22750 6778.0
33.23550 6668.0
33.24350 6650.0
33.25150 6297.0
33.25950 6298.0
33.26750 6096.0
33.27550 5914.0
33.28350 5930.0
33.29150 5666.0
33.29950 5469.0
33.30750 5385.0
33.31550 5306.0
33.32350 5077.0
33.33150 4963.0
33.33950 4857.0
33.34750 4692.0
33.35550 4588.0
33.36350 4540.0
33.37150 4364.0
33.37950 4299.0
33.38750 4100.0
33.39550 4070.0
33.40350 3942.0
33.41150 3874.0
33.41950 3673.0
33.42750 3706.0
33.43550 3694.0
33.44350 3632.0
33.45150 3483.0
33.45950 3216.0
33.46750 3306.0
33.47550 3194.0
33.48350 3084.0
33.49150 3045.0
33.49950 2948.0
33.50750 2912.0
33.51550 2856.0
33.52350 2855.0
33.53150 2682.0
33.53950 2693.0
33.54750 2667.0
33.55550 2576.0
33.56350 2399.0
33.57150 2356.0
33.57950 2455.0
33.58750 2397.0
33.59550 2263.0
33.60350 2138.0
33.61150 2207.0
33.61950 2140.0
33.62750 2038.0
33.63550 1998.0
33.64350 2060.0
33.65150 1913.0
33.65950 1774.0
33.66750 1851.0
33.67550 1885.0
33.68350 1818.0
33.69150 1762.0