Folder: DataAnalysis/data/w6929c/XRD_2ThetaOmega

Note: data/w6929c/XRD_2ThetaOmega/W6929c_peaks.TXT
No.	Label	Pos. [°2Th.]	FWHM Left [°2Th.]	Area [cts*°2Th.]	Backgr.[cts]	d-spacing [Å]	Height [cts]	Shape Left	Status	Integral Breadth [°2Th.]	FWHM Right [°2Th.]	Shape Right	Obs. Lorentz B [°2Th.]	Obs. Gauss B [°2Th.]	Instr. Lorentz B [°2Th.]	Instr. Gauss B [°2Th.]	Crystallite Size [Å]	Micro Strain [%]	Crystallite Size only [Å]	Micro Strain only [%]
1	Cr2O3 0 0 6	39,2099(3)	0,143(1)	453,27	66,24	2,29575	2275(15)	0,73(1)	Included	0,199215	 	 	0,150871	0,085951	0,073933	0,062634	1217,895000	0,072107	806,140200	0,142392
2	Al2O3 0 0 6	41,62022(3)	0,03554(7)	2018,66	70,27	2,16820	45277(92)	0,470(3)	Included	0,044585	 	 	0,022704	0,028630	0,073977	0,062671	-1841,715000	-0,064003	29858,080000	0,003631

Note: README.md
# Methods
## RSM analysis

Check out [doc](documentation/RSM.md)

File: scan_2th-om_c_Cr2O3_35-45deg_PIXscan_4min_C2.xy
35.0021 67.0
35.0365 56.0
35.071 54.0
35.1055 57.0
35.1399 62.0
35.1744 61.0
35.2089 61.0
35.2433 54.0
35.2778 62.0
35.3123 67.0
35.3467 65.0
35.3812 73.0
35.4157 46.0
35.4501 62.0
35.4846 72.0
35.5191 62.0
35.5535 57.0
35.588 52.0
35.6225 55.0
35.6569 45.0
35.6914 59.0
35.7259 60.0
35.7603 55.0
35.7948 59.0
35.8293 60.0
35.8637 52.0
35.8982 56.0
35.9327 47.0
35.9671 55.0
36.0016 51.0
36.0361 64.0
36.0705 67.0
36.105 53.0
36.1395 59.0
36.1739 49.0
36.2084 57.0
36.2429 69.0
36.2773 55.0
36.3118 55.0
36.3463 48.0
36.3807 52.0
36.4152 57.0
36.4497 53.0
36.4841 58.0
36.5186 66.0
36.5531 58.0
36.5875 61.0
36.622 62.0
36.6565 63.0
36.6909 44.0
36.7254 61.0
36.7599 60.0
36.7943 70.0
36.8288 56.0
36.8633 43.0
36.8977 72.0
36.9322 50.0
36.9667 69.0
37.0011 73.0
37.0356 47.0
37.0701 60.0
37.1045 64.0
37.139 55.0
37.1735 68.0
37.2079 65.0
37.2424 69.0
37.2769 71.0
37.3114 57.0
37.3458 59.0
37.3803 66.0
37.4148 80.0
37.4492 148.0
37.4837 87.0
37.5182 74.0
37.5526 65.0
37.5871 68.0
37.6216 72.0
37.656 65.0
37.6905 65.0
37.725 87.0
37.7594 69.0
37.7939 67.0
37.8284 61.0
37.8628 63.0
37.8973 64.0
37.9318 78.0
37.9662 63.0
38.0007 77.0
38.0352 76.0
38.0696 60.0
38.1041 67.0
38.1386 75.0
38.173 73.0
38.2075 83.0
38.242 81.0
38.2764 68.0
38.3109 73.0
38.3454 91.0
38.3798 96.0
38.4143 77.0
38.4488 83.0
38.4832 85.0
38.5177 104.0
38.5522 95.0
38.5866 101.0
38.6211 87.0
38.6556 97.0
38.69 134.0
38.7245 135.0
38.759 119.0
38.7934 152.0
38.8279 168.0
38.8624 155.0
38.8968 182.0
38.9313 264.0
38.9658 285.0
39.0002 334.0
39.0347 511.0
39.0692 589.0
39.1036 684.0
39.1381 1226.0
39.1726 2032.0
39.207 2534.0
39.2415 2628.0
39.276 2331.0
39.3104 1931.0
39.3449 1374.0
39.3794 986.0
39.4138 592.0
39.4483 382.0
39.4828 205.0
39.5172 176.0
39.5517 182.0
39.5862 130.0
39.6206 109.0
39.6551 98.0
39.6896 100.0
39.724 79.0
39.7585 87.0
39.793 88.0
39.8274 93.0
39.8619 98.0
39.8964 55.0
39.9308 73.0
39.9653 81.0
39.9998 71.0
40.0342 83.0
40.0687 73.0
40.1032 77.0
40.1376 73.0
40.1721 61.0
40.2066 65.0
40.241 67.0
40.2755 78.0
40.31 63.0
40.3444 69.0
40.3789 60.0
40.4134 69.0
40.4478 60.0
40.4823 73.0
40.5168 84.0
40.5512 85.0
40.5857 76.0
40.6202 82.0
40.6546 56.0
40.6891 81.0
40.7236 89.0
40.758 74.0
40.7925 95.0
40.827 76.0
40.8615 77.0
40.8959 82.0
40.9304 81.0
40.9649 92.0
40.9993 83.0
41.0338 94.0
41.0683 88.0
41.1027 86.0
41.1372 128.0
41.1717 106.0
41.2061 109.0
41.2406 92.0
41.2751 135.0
41.3095 127.0
41.344 133.0
41.3785 199.0
41.4129 368.0
41.4474 440.0
41.4819 419.0
41.5163 561.0
41.5508 1216.0
41.5853 5004.0
41.6197 45179.0
41.6542 6256.0
41.6887 2901.0
41.7231 20774.0
41.7576 4894.0
41.7921 895.0
41.8265 488.0
41.861 277.0
41.8955 210.0
41.9299 190.0
41.9644 153.0
41.9989 127.0
42.0333 134.0
42.0678 112.0
42.1023 104.0
42.1367 97.0
42.1712 102.0
42.2057 93.0
42.2401 84.0
42.2746 75.0
42.3091 53.0
42.3435 85.0
42.378 77.0
42.4125 74.0
42.4469 69.0
42.4814 71.0
42.5159 62.0
42.5503 70.0
42.5848 61.0
42.6193 60.0
42.6537 72.0
42.6882 69.0
42.7227 68.0
42.7571 61.0
42.7916 66.0
42.8261 49.0
42.8605 70.0
42.895 61.0
42.9295 62.0
42.9639 75.0
42.9984 59.0
43.0329 68.0
43.0673 52.0
43.1018 65.0
43.1363 56.0
43.1707 57.0
43.2052 59.0
43.2397 55.0
43.2741 62.0
43.3086 59.0
43.3431 63.0
43.3775 79.0
43.412 60.0
43.4465 69.0
43.4809 69.0
43.5154 70.0
43.5499 65.0
43.5843 54.0
43.6188 60.0
43.6533 78.0
43.6877 70.0
43.7222 72.0
43.7567 78.0
43.7911 62.0
43.8256 72.0
43.8601 84.0
43.8945 67.0
43.929 64.0
43.9635 74.0
43.9979 63.0
44.0324 70.0
44.0669 73.0
44.1013 82.0
44.1358 97.0
44.1703 89.0
44.2047 91.0
44.2392 96.0
44.2737 105.0
44.3081 120.0
44.3426 130.0
44.3771 137.0
44.4116 139.0
44.446 132.0
44.4805 123.0
44.515 107.0
44.5494 100.0
44.5839 112.0
44.6184 96.0
44.6528 73.0
44.6873 68.0
44.7218 67.0
44.7562 68.0
44.7907 64.0
44.8252 53.0
44.8596 77.0
44.8941 68.0
44.9286 63.0
44.963 66.0
44.9975 70.0