Folder: DataAnalysis/data/w6929c/XRD_Omega

Note: data/w6929c/XRD_Omega/W6929c_omega_peaks.TXT
No.	Label	Pos. [記mega]	FWHM Left [記mega]	Area [cts*記mega]	Backgr.[cts]	d-spacing [魔	Height [cts]	Shape Left	Status	Integral Breadth [記mega]	FWHM Right [記mega]	Shape Right	Obs. Lorentz B [記mega]	Obs. Gauss B [記mega]	Instr. Lorentz B [記mega]	Instr. Gauss B [記mega]	Crystallite Size [魔	Micro Strain [%]	Crystallite Size only [魔	Micro Strain only [%]
1	Cr2O3 0 0 6	19,6577(2)	0,1122(5)	489,37	25,53	 	3521(16)	0,435(5)	Included	0,138969	 	 	0,065950	0,092915	0,075212	0,063713	-9672,248000	0,170328	1324,482000	0,170347

Note: README.md
# Methods
## RSM analysis

Check out [doc](documentation/RSM.md)

File: film_c_scan_omega_4deg_step_0.005deg0_C2.xy
17.69020 30.0
17.70520 38.0
17.72020 26.0
17.73520 37.0
17.75020 30.0
17.76520 28.0
17.78020 26.0
17.79520 28.0
17.81020 26.0
17.82520 38.0
17.84020 23.0
17.85520 27.0
17.87020 30.0
17.88520 28.0
17.90020 38.0
17.91520 45.0
17.93020 26.0
17.94520 24.0
17.96020 33.0
17.97520 26.0
17.99020 29.0
18.00520 30.0
18.02020 34.0
18.03520 39.0
18.05020 35.0
18.06520 33.0
18.08020 31.0
18.09520 24.0
18.11020 24.0
18.12520 38.0
18.14020 29.0
18.15520 27.0
18.17020 22.0
18.18520 25.0
18.20020 35.0
18.21520 26.0
18.23020 37.0
18.24520 29.0
18.26020 42.0
18.27520 29.0
18.29020 33.0
18.30520 21.0
18.32020 36.0
18.33520 33.0
18.35020 23.0
18.36520 28.0
18.38020 32.0
18.39520 30.0
18.41020 33.0
18.42520 32.0
18.44020 28.0
18.45520 31.0
18.47020 41.0
18.48520 26.0
18.50020 39.0
18.51520 26.0
18.53020 29.0
18.54520 32.0
18.56020 36.0
18.57520 34.0
18.59020 31.0
18.60520 42.0
18.62020 30.0
18.63520 36.0
18.65020 37.0
18.66520 34.0
18.68020 34.0
18.69520 45.0
18.71020 23.0
18.72520 43.0
18.74020 31.0
18.75520 33.0
18.77020 30.0
18.78520 36.0
18.80020 38.0
18.81520 28.0
18.83020 32.0
18.84520 35.0
18.86020 37.0
18.87520 31.0
18.89020 32.0
18.90520 36.0
18.92020 41.0
18.93520 35.0
18.95020 29.0
18.96520 33.0
18.98020 49.0
18.99520 49.0
19.01020 27.0
19.02520 44.0
19.04020 40.0
19.05520 47.0
19.07020 42.0
19.08520 47.0
19.10020 37.0
19.11520 48.0
19.13020 40.0
19.14520 40.0
19.16020 60.0
19.17520 46.0
19.19020 48.0
19.20520 41.0
19.22020 47.0
19.23520 43.0
19.25020 63.0
19.26520 69.0
19.28020 59.0
19.29520 49.0
19.31020 78.0
19.32520 78.0
19.34020 80.0
19.35520 75.0
19.37020 79.0
19.38520 89.0
19.40020 103.0
19.41520 136.0
19.43020 119.0
19.44520 147.0
19.46020 156.0
19.47520 170.0
19.49020 213.0
19.50520 241.0
19.52020 317.0
19.53520 563.0
19.55020 829.0
19.56520 1067.0
19.58020 1272.0
19.59520 1552.0
19.61020 2053.0
19.62520 2867.0
19.64020 4023.0
19.65520 4796.0
19.67020 4964.0
19.68520 4724.0
19.70020 4165.0
19.71520 3491.0
19.73020 2689.0
19.74520 1986.0
19.76020 1466.0
19.77520 1042.0
19.79020 747.0
19.80520 484.0
19.82020 375.0
19.83520 263.0
19.85020 204.0
19.86520 203.0
19.88020 156.0
19.89520 126.0
19.91020 107.0
19.92520 111.0
19.94020 90.0
19.95520 75.0
19.97020 86.0
19.98520 65.0
20.00020 75.0
20.01520 62.0
20.03020 63.0
20.04520 60.0
20.06020 63.0
20.07520 48.0
20.09020 48.0
20.10520 35.0
20.12020 36.0
20.13520 64.0
20.15020 41.0
20.16520 60.0
20.18020 43.0
20.19520 37.0
20.21020 39.0
20.22520 30.0
20.24020 48.0
20.25520 44.0
20.27020 44.0
20.28520 29.0
20.30020 43.0
20.31520 37.0
20.33020 44.0
20.34520 40.0
20.36020 37.0
20.37520 35.0
20.39020 30.0
20.40520 44.0
20.42020 30.0
20.43520 23.0
20.45020 34.0
20.46520 26.0
20.48020 42.0
20.49520 29.0
20.51020 30.0
20.52520 34.0
20.54020 31.0
20.55520 29.0
20.57020 19.0
20.58520 28.0
20.60020 32.0
20.61520 35.0
20.63020 37.0
20.64520 29.0
20.66020 42.0
20.67520 29.0
20.69020 27.0
20.70520 31.0
20.72020 39.0
20.73520 27.0
20.75020 23.0
20.76520 22.0
20.78020 33.0
20.79520 34.0
20.81020 26.0
20.82520 23.0
20.84020 26.0
20.85520 40.0
20.87020 30.0
20.88520 25.0
20.90020 30.0
20.91520 37.0
20.93020 30.0
20.94520 40.0
20.96020 24.0
20.97520 25.0
20.99020 30.0
21.00520 35.0
21.02020 26.0
21.03520 34.0
21.05020 18.0
21.06520 34.0
21.08020 26.0
21.09520 32.0
21.11020 37.0
21.12520 32.0
21.14020 29.0
21.15520 36.0
21.17020 27.0
21.18520 27.0
21.20020 20.0
21.21520 26.0
21.23020 27.0
21.24520 24.0
21.26020 27.0
21.27520 30.0
21.29020 38.0
21.30520 27.0
21.32020 26.0
21.33520 26.0
21.35020 35.0
21.36520 31.0
21.38020 42.0
21.39520 38.0
21.41020 31.0
21.42520 23.0
21.44020 29.0
21.45520 27.0
21.47020 39.0
21.48520 27.0
21.50020 25.0
21.51520 34.0
21.53020 22.0
21.54520 31.0
21.56020 26.0
21.57520 28.0
21.59020 17.0
21.60520 34.0
21.62020 24.0
21.63520 35.0
21.65020 21.0