Folder: DataAnalysis/data/W6788a/XRD_Omega

Note: data/W6788a/XRD_Omega/W6788a_omega_peaks.TXT
No.	Label	Pos. [記mega]	FWHM Left [記mega]	Area [cts*記mega]	Backgr.[cts]	d-spacing [魔	Height [cts]	Shape Left	Status	Integral Breadth [記mega]	FWHM Right [記mega]	Shape Right	Obs. Lorentz B [記mega]	Obs. Gauss B [記mega]	Instr. Lorentz B [記mega]	Instr. Gauss B [記mega]	Crystallite Size [魔	Micro Strain [%]	Crystallite Size only [魔	Micro Strain only [%]
1	Cr2O3 1 1 0	17,7829(5)	0,573(5)	4262,11	3339,28	 	4737(32)	1,00(1)	Included	0,899675	 	 	0,895453	0,015194	0,075470	0,063932	108,957600	-0,173201	108,956000	2,287030

Note: README.md
# Methods
## RSM analysis

Check out [doc](documentation/RSM.md)

File: W6788a_Cr2O3_scan_omega_2deg_step_0.002deg0_17.xy
16.82550 3150.0
16.83350 3115.0
16.84150 3113.0
16.84950 3222.0
16.85750 3216.0
16.86550 3285.0
16.87350 3438.0
16.88150 3294.0
16.88950 3390.0
16.89750 3410.0
16.90550 3533.0
16.91350 3481.0
16.92150 3497.0
16.92950 3690.0
16.93750 3689.0
16.94550 3644.0
16.95350 3701.0
16.96150 3743.0
16.96950 3872.0
16.97750 3852.0
16.98550 3911.0
16.99350 4061.0
17.00150 4127.0
17.00950 4048.0
17.01750 4150.0
17.02550 4212.0
17.03350 4419.0
17.04150 4426.0
17.04950 4421.0
17.05750 4460.0
17.06550 4557.0
17.07350 4562.0
17.08150 4674.0
17.08950 4739.0
17.09750 4845.0
17.10550 4773.0
17.11350 4933.0
17.12150 5147.0
17.12950 4984.0
17.13750 5085.0
17.14550 5161.0
17.15350 5206.0
17.16150 5332.0
17.16950 5509.0
17.17750 5385.0
17.18550 5442.0
17.19350 5497.0
17.20150 5706.0
17.20950 5890.0
17.21750 5920.0
17.22550 5956.0
17.23350 6041.0
17.24150 6159.0
17.24950 6285.0
17.25750 6386.0
17.26550 6354.0
17.27350 6438.0
17.28150 6601.0
17.28950 6643.0
17.29750 6669.0
17.30550 6875.0
17.31350 6820.0
17.32150 6825.0
17.32950 6915.0
17.33750 7069.0
17.34550 7339.0
17.35350 7428.0
17.36150 7535.0
17.36950 7578.0
17.37750 7743.0
17.38550 7855.0
17.39350 7855.0
17.40150 7850.0
17.40950 8023.0
17.41750 8107.0
17.42550 8265.0
17.43350 8290.0
17.44150 8430.0
17.44950 8374.0
17.45750 8568.0
17.46550 8528.0
17.47350 8898.0
17.48150 8999.0
17.48950 9093.0
17.49750 9204.0
17.50550 9346.0
17.51350 9362.0
17.52150 9466.0
17.52950 9337.0
17.53750 9441.0
17.54550 9699.0
17.55350 9817.0
17.56150 9883.0
17.56950 10034.0
17.57750 10258.0
17.58550 10402.0
17.59350 10359.0
17.60150 10559.0
17.60950 10554.0
17.61750 10722.0
17.62550 11221.0
17.63350 11020.0
17.64150 11142.0
17.64950 11277.0
17.65750 11365.0
17.66550 11532.0
17.67350 11752.0
17.68150 12016.0
17.68950 11912.0
17.69750 12178.0
17.70550 12373.0
17.71350 12455.0
17.72150 12554.0
17.72950 12614.0
17.73750 12991.0
17.74550 12994.0
17.75350 13361.0
17.76150 13347.0
17.76950 13547.0
17.77750 13950.0
17.78550 13812.0
17.79350 14294.0
17.80150 14064.0
17.80950 13899.0
17.81750 13826.0
17.82550 13687.0
17.83350 13508.0
17.84150 13368.0
17.84950 13336.0
17.85750 13090.0
17.86550 12875.0
17.87350 12607.0
17.88150 12396.0
17.88950 12146.0
17.89750 12224.0
17.90550 12048.0
17.91350 11996.0
17.92150 11883.0
17.92950 11865.0
17.93750 11706.0
17.94550 11711.0
17.95350 11564.0
17.96150 11501.0
17.96950 11424.0
17.97750 11020.0
17.98550 11112.0
17.99350 11100.0
18.00150 11056.0
18.00950 10906.0
18.01750 10837.0
18.02550 11008.0
18.03350 10860.0
18.04150 10542.0
18.04950 10326.0
18.05750 10475.0
18.06550 10278.0
18.07350 10319.0
18.08150 10586.0
18.08950 10174.0
18.09750 10134.0
18.10550 9827.0
18.11350 9811.0
18.12150 9994.0
18.12950 9820.0
18.13750 9731.0
18.14550 9669.0
18.15350 9478.0
18.16150 9269.0
18.16950 9283.0
18.17750 9312.0
18.18550 9244.0
18.19350 9260.0
18.20150 9125.0
18.20950 8944.0
18.21750 8942.0
18.22550 8889.0
18.23350 8656.0
18.24150 8492.0
18.24950 8622.0
18.25750 8626.0
18.26550 8406.0
18.27350 8295.0
18.28150 8187.0
18.28950 8284.0
18.29750 7963.0
18.30550 8119.0
18.31350 7987.0
18.32150 7850.0
18.32950 7676.0
18.33750 7711.0
18.34550 7623.0
18.35350 7533.0
18.36150 7598.0
18.36950 7362.0
18.37750 7430.0
18.38550 7434.0
18.39350 7502.0
18.40150 7216.0
18.40950 7184.0
18.41750 7287.0
18.42550 7167.0
18.43350 7022.0
18.44150 6955.0
18.44950 6978.0
18.45750 6859.0
18.46550 6615.0
18.47350 6271.0
18.48150 5927.0
18.48950 5911.0
18.49750 5698.0
18.50550 5578.0
18.51350 5547.0
18.52150 5490.0
18.52950 5505.0
18.53750 5463.0
18.54550 5203.0
18.55350 5274.0
18.56150 4991.0
18.56950 5289.0
18.57750 5081.0
18.58550 4995.0
18.59350 5066.0
18.60150 4953.0
18.60950 4748.0
18.61750 4731.0
18.62550 4737.0
18.63350 4438.0
18.64150 4483.0
18.64950 4397.0
18.65750 4440.0
18.66550 4469.0
18.67350 4540.0
18.68150 4331.0
18.68950 4177.0
18.69750 4138.0
18.70550 4145.0
18.71350 4166.0
18.72150 4084.0
18.72950 3965.0
18.73750 3983.0
18.74550 3808.0
18.75350 3763.0
18.76150 3669.0
18.76950 3588.0
18.77750 3627.0
18.78550 3704.0
18.79350 3507.0
18.80150 3568.0
18.80950 3542.0