Folder: DataAnalysis/data/W6902m/XRD_2ThetaOmega

Note: data/W6902m/XRD_2ThetaOmega/W6902m_peaks.TXT
No.	Label	Pos. [°2Th.]	FWHM Left [°2Th.]	Area [cts*°2Th.]	Backgr.[cts]	d-spacing [Å]	Height [cts]	Shape Left	Status	Integral Breadth [°2Th.]	FWHM Right [°2Th.]	Shape Right	Obs. Lorentz B [°2Th.]	Obs. Gauss B [°2Th.]	Instr. Lorentz B [°2Th.]	Instr. Gauss B [°2Th.]	Crystallite Size [Å]	Micro Strain [%]	Crystallite Size only [Å]	Micro Strain only [%]
1	Cr2O3 3 0 0	64,8358(4)	0,289(1)	987,47	190,40	1,43688	2674(11)	0,516(8)	Included	0,369335	 	 	0,205183	0,223834	0,077423	0,065592	818,454000	0,147040	345,558100	0,207908
2	Al2O3 3 0 0	68,17150(1)	0,05981(4)	19238,28	213,16	1,37447	248564(164)	0,5504(9)	Included	0,077398	 	 	0,045601	0,044825	0,078474	0,066481	-3242,205000	-0,031657	33699,870000	0,002039

Note: README.md
# Methods
## RSM analysis

Check out [doc](documentation/RSM.md)

File: scan_2th-om_m_Cr2O3_55-75deg_PIXscan_4min_C3.xy
55.0019 106.0
55.0708 117.0
55.1397 108.0
55.2087 133.0
55.2776 120.0
55.3465 119.0
55.4155 121.0
55.4844 122.0
55.5533 113.0
55.6223 106.0
55.6912 108.0
55.7601 103.0
55.8291 127.0
55.898 95.0
55.9669 118.0
56.0359 107.0
56.1048 107.0
56.1737 106.0
56.2427 118.0
56.3116 112.0
56.3805 104.0
56.4495 123.0
56.5184 120.0
56.5873 114.0
56.6563 114.0
56.7252 119.0
56.7941 104.0
56.8631 123.0
56.932 94.0
57.0009 125.0
57.0699 154.0
57.1388 112.0
57.2077 134.0
57.2767 103.0
57.3456 128.0
57.4146 125.0
57.4835 96.0
57.5524 129.0
57.6214 128.0
57.6903 97.0
57.7592 111.0
57.8282 133.0
57.8971 131.0
57.966 126.0
58.035 134.0
58.1039 119.0
58.1728 115.0
58.2418 124.0
58.3107 127.0
58.3796 134.0
58.4486 125.0
58.5175 109.0
58.5864 111.0
58.6554 114.0
58.7243 118.0
58.7932 123.0
58.8622 112.0
58.9311 122.0
59 108.0
59.069 121.0
59.1379 111.0
59.2068 96.0
59.2758 109.0
59.3447 114.0
59.4136 158.0
59.4826 129.0
59.5515 120.0
59.6204 142.0
59.6894 117.0
59.7583 134.0
59.8272 129.0
59.8962 127.0
59.9651 127.0
60.034 109.0
60.103 117.0
60.1719 117.0
60.2408 145.0
60.3098 136.0
60.3787 124.0
60.4476 127.0
60.5166 114.0
60.5855 129.0
60.6544 131.0
60.7234 194.0
60.7923 374.0
60.8613 1007.0
60.9302 468.0
60.9991 200.0
61.0681 160.0
61.137 131.0
61.2059 168.0
61.2749 137.0
61.3438 132.0
61.4127 128.0
61.4817 124.0
61.5506 142.0
61.6195 125.0
61.6885 126.0
61.7574 120.0
61.8263 131.0
61.8953 148.0
61.9642 140.0
62.0331 139.0
62.1021 144.0
62.171 131.0
62.2399 132.0
62.3089 127.0
62.3778 141.0
62.4467 141.0
62.5157 132.0
62.5846 145.0
62.6535 101.0
62.7225 127.0
62.7914 163.0
62.8603 163.0
62.9293 127.0
62.9982 144.0
63.0671 142.0
63.1361 144.0
63.205 148.0
63.2739 129.0
63.3429 146.0
63.4118 160.0
63.4807 156.0
63.5497 160.0
63.6186 174.0
63.6875 176.0
63.7565 165.0
63.8254 188.0
63.8943 204.0
63.9633 204.0
64.0322 215.0
64.1011 206.0
64.1701 236.0
64.239 245.0
64.3079 299.0
64.3769 401.0
64.4458 443.0
64.5148 554.0
64.5837 817.0
64.6526 1108.0
64.7216 1916.0
64.7905 2950.0
64.8594 3425.0
64.9284 3241.0
64.9973 2665.0
65.0662 1918.0
65.1352 1314.0
65.2041 767.0
65.273 558.0
65.342 401.0
65.4109 320.0
65.4798 273.0
65.5488 233.0
65.6177 225.0
65.6866 214.0
65.7556 235.0
65.8245 241.0
65.8934 189.0
65.9624 207.0
66.0313 206.0
66.1002 221.0
66.1692 264.0
66.2381 198.0
66.307 257.0
66.376 230.0
66.4449 286.0
66.5138 261.0
66.5828 305.0
66.6517 310.0
66.7206 295.0
66.7896 327.0
66.8585 328.0
66.9274 325.0
66.9964 373.0
67.0653 434.0
67.1342 431.0
67.2032 447.0
67.2721 460.0
67.341 510.0
67.41 532.0
67.4789 599.0
67.5478 688.0
67.6168 722.0
67.6857 977.0
67.7546 1351.0
67.8236 2380.0
67.8925 2645.0
67.9615 2809.0
68.0304 5237.0
68.0993 18906.0
68.1683 236529.0
68.2372 27055.0
68.3061 21605.0
68.3751 107626.0
68.444 9126.0
68.5129 3358.0
68.5819 2122.0
68.6508 1525.0
68.7197 1151.0
68.7887 904.0
68.8576 778.0
68.9265 641.0
68.9955 608.0
69.0644 482.0
69.1333 463.0
69.2023 423.0
69.2712 369.0
69.3401 282.0
69.4091 264.0
69.478 298.0
69.5469 259.0
69.6159 228.0
69.6848 198.0
69.7537 201.0
69.8227 195.0
69.8916 191.0
69.9605 170.0
70.0295 190.0
70.0984 184.0
70.1673 183.0
70.2363 163.0
70.3052 168.0
70.3741 151.0
70.4431 150.0
70.512 164.0
70.5809 159.0
70.6499 165.0
70.7188 163.0
70.7877 145.0
70.8567 162.0
70.9256 159.0
70.9945 151.0
71.0635 138.0
71.1324 152.0
71.2013 132.0
71.2703 139.0
71.3392 148.0
71.4082 132.0
71.4771 180.0
71.546 119.0
71.615 155.0
71.6839 143.0
71.7528 131.0
71.8218 140.0
71.8907 139.0
71.9596 142.0
72.0286 133.0
72.0975 128.0
72.1664 134.0
72.2354 146.0
72.3043 128.0
72.3732 134.0
72.4422 126.0
72.5111 133.0
72.58 147.0
72.649 136.0
72.7179 130.0
72.7868 148.0
72.8558 121.0
72.9247 110.0
72.9936 129.0
73.0626 154.0
73.1315 139.0
73.2004 131.0
73.2694 141.0
73.3383 130.0
73.4072 132.0
73.4762 128.0
73.5451 146.0
73.614 123.0
73.683 132.0
73.7519 122.0
73.8208 134.0
73.8898 139.0
73.9587 117.0
74.0276 101.0
74.0966 120.0
74.1655 119.0
74.2344 131.0
74.3034 134.0
74.3723 131.0
74.4412 106.0
74.5102 129.0
74.5791 165.0
74.648 134.0
74.717 127.0
74.7859 134.0
74.8548 134.0
74.9238 150.0
74.9927 134.0
74.9976 137.0