Folder: DataAnalysis/data/W6902m/XRD_Omega

Note: data/W6902m/XRD_Omega/W6902m_omega_peaks.TXT
No.	Label	Pos. [記mega]	FWHM Left [記mega]	Area [cts*記mega]	Backgr.[cts]	d-spacing [魔	Height [cts]	Shape Left	Status	Integral Breadth [記mega]	FWHM Right [記mega]	Shape Right	Obs. Lorentz B [記mega]	Obs. Gauss B [記mega]	Instr. Lorentz B [記mega]	Instr. Gauss B [記mega]	Crystallite Size [魔	Micro Strain [%]	Crystallite Size only [魔	Micro Strain only [%]
1	Cr2O3 3 0 0	32,8484(5)	0,635(1)	1224,93	70,40	 	1673(4)	0,236(4)	Included	0,732117	 	 	0,194761	0,600660	0,074045	0,062728	762,327900	0,884249	136,061300	1,001146

Note: README.md
# Methods
## RSM analysis

Check out [doc](documentation/RSM.md)

File: scan_omega_4deg_step_0.005deg0_C3_2.xy
30.95010 68.0
30.96510 76.0
30.98010 74.0
30.99510 86.0
31.01010 82.0
31.02510 91.0
31.04010 77.0
31.05510 58.0
31.07010 77.0
31.08510 64.0
31.10010 95.0
31.11510 94.0
31.13010 72.0
31.14510 91.0
31.16010 77.0
31.17510 96.0
31.19010 67.0
31.20510 67.0
31.22010 90.0
31.23510 75.0
31.25010 97.0
31.26510 84.0
31.28010 76.0
31.29510 75.0
31.31010 86.0
31.32510 76.0
31.34010 95.0
31.35510 79.0
31.37010 95.0
31.38510 89.0
31.40010 98.0
31.41510 89.0
31.43010 75.0
31.44510 100.0
31.46010 94.0
31.47510 101.0
31.49010 98.0
31.50510 84.0
31.52010 91.0
31.53510 94.0
31.55010 123.0
31.56510 104.0
31.58010 85.0
31.59510 90.0
31.61010 110.0
31.62510 86.0
31.64010 112.0
31.65510 124.0
31.67010 114.0
31.68510 95.0
31.70010 98.0
31.71510 121.0
31.73010 113.0
31.74510 98.0
31.76010 125.0
31.77510 126.0
31.79010 133.0
31.80510 131.0
31.82010 134.0
31.83510 125.0
31.85010 131.0
31.86510 159.0
31.88010 160.0
31.89510 135.0
31.91010 150.0
31.92510 156.0
31.94010 171.0
31.95510 191.0
31.97010 200.0
31.98510 187.0
32.00010 201.0
32.01510 203.0
32.03010 220.0
32.04510 242.0
32.06010 193.0
32.07510 230.0
32.09010 234.0
32.10510 238.0
32.12010 234.0
32.13510 290.0
32.15010 284.0
32.16510 266.0
32.18010 340.0
32.19510 347.0
32.21010 422.0
32.22510 411.0
32.24010 453.0
32.25510 448.0
32.27010 501.0
32.28510 500.0
32.30010 540.0
32.31510 546.0
32.33010 587.0
32.34510 627.0
32.36010 703.0
32.37510 670.0
32.39010 760.0
32.40510 748.0
32.42010 793.0
32.43510 839.0
32.45010 897.0
32.46510 850.0
32.48010 904.0
32.49510 943.0
32.51010 1032.0
32.52510 1067.0
32.54010 1108.0
32.55510 1117.0
32.57010 1277.0
32.58510 1381.0
32.60010 1336.0
32.61510 1543.0
32.63010 1537.0
32.64510 1512.0
32.66010 1646.0
32.67510 1737.0
32.69010 1800.0
32.70510 1857.0
32.72010 2004.0
32.73510 2007.0
32.75010 2019.0
32.76510 2190.0
32.78010 2281.0
32.79510 2263.0
32.81010 2357.0
32.82510 2384.0
32.84010 2543.0
32.85510 2521.0
32.87010 2537.0
32.88510 2615.0
32.90010 2631.0
32.91510 2665.0
32.93010 2739.0
32.94510 2706.0
32.96010 2654.0
32.97510 2679.0
32.99010 2752.0
33.00510 2643.0
33.02010 2469.0
33.03510 2466.0
33.05010 2400.0
33.06510 2287.0
33.08010 2260.0
33.09510 2132.0
33.11010 2061.0
33.12510 1890.0
33.14010 1854.0
33.15510 1745.0
33.17010 1503.0
33.18510 1412.0
33.20010 1293.0
33.21510 1278.0
33.23010 1197.0
33.24510 1086.0
33.26010 958.0
33.27510 885.0
33.29010 770.0
33.30510 743.0
33.32010 640.0
33.33510 592.0
33.35010 569.0
33.36510 532.0
33.38010 504.0
33.39510 435.0
33.41010 396.0
33.42510 384.0
33.44010 349.0
33.45510 298.0
33.47010 285.0
33.48510 292.0
33.50010 282.0
33.51510 261.0
33.53010 266.0
33.54510 245.0
33.56010 195.0
33.57510 209.0
33.59010 197.0
33.60510 180.0
33.62010 169.0
33.63510 159.0
33.65010 163.0
33.66510 154.0
33.68010 135.0
33.69510 142.0
33.71010 140.0
33.72510 138.0
33.74010 113.0
33.75510 136.0
33.77010 120.0
33.78510 128.0
33.80010 124.0
33.81510 110.0
33.83010 103.0
33.84510 105.0
33.86010 99.0
33.87510 105.0
33.89010 91.0
33.90510 95.0
33.92010 105.0
33.93510 93.0
33.95010 87.0
33.96510 108.0
33.98010 103.0
33.99510 98.0
34.01010 95.0
34.02510 79.0
34.04010 89.0
34.05510 74.0
34.07010 88.0
34.08510 81.0
34.10010 66.0
34.11510 87.0
34.13010 71.0
34.14510 65.0
34.16010 92.0
34.17510 75.0
34.19010 65.0
34.20510 82.0
34.22010 88.0
34.23510 78.0
34.25010 88.0
34.26510 82.0
34.28010 50.0
34.29510 72.0
34.31010 73.0
34.32510 79.0
34.34010 67.0
34.35510 69.0
34.37010 68.0
34.38510 73.0
34.40010 72.0
34.41510 72.0
34.43010 70.0
34.44510 73.0
34.46010 76.0
34.47510 62.0
34.49010 86.0
34.50510 63.0
34.52010 76.0
34.53510 78.0
34.55010 52.0
34.56510 67.0
34.58010 67.0
34.59510 67.0
34.61010 68.0
34.62510 58.0
34.64010 58.0
34.65510 71.0
34.67010 64.0
34.68510 65.0
34.70010 87.0
34.71510 70.0
34.73010 60.0
34.74510 61.0
34.76010 60.0
34.77510 63.0
34.79010 74.0
34.80510 69.0
34.82010 70.0
34.83510 61.0
34.85010 67.0
34.86510 77.0
34.88010 75.0
34.89510 61.0
34.91010 73.0