Folder: DataAnalysis/data/W6903r/XRD_2ThetaOmega

Note: data/W6903r/XRD_2ThetaOmega/W6903r_peaks.TXT
No.	Label	Pos. [°2Th.]	FWHM Left [°2Th.]	Area [cts*°2Th.]	Backgr.[cts]	d-spacing [Å]	Height [cts]	Shape Left	Status	Integral Breadth [°2Th.]	FWHM Right [°2Th.]	Shape Right	Obs. Lorentz B [°2Th.]	Obs. Gauss B [°2Th.]	Instr. Lorentz B [°2Th.]	Instr. Gauss B [°2Th.]	Crystallite Size [Å]	Micro Strain [%]	Crystallite Size only [Å]	Micro Strain only [%]
1	Cr2O3 0 2 4	49,8544(3)	0,4623(9)	1682,40	203,93	1,82766	3419(8)	0,000(8)	Included	0,492115	 	 	0,001204	0,492115	0,074526	0,063137	-1327,520000	0,458195	199,419700	0,458246
2	Al2O3 0 2 4	52,51060(1)	0,05468(3)	32452,96	221,84	1,74129	483605(232)	0,4117(6)	Included	0,067106	 	 	0,030239	0,046077	0,074847	0,063410	-2206,385000	-0,038535	31120,910000	0,002798

Note: README.md
# Methods
## RSM analysis

Check out [doc](documentation/RSM.md)

File: scan_2th-om_r2_Cr2O3_45-55deg_PIXscan_5min_C4.xy
45.0025 110.0
45.0369 121.0
45.0714 112.0
45.1059 109.0
45.1403 100.0
45.1748 104.0
45.2093 108.0
45.2437 110.0
45.2782 104.0
45.3127 104.0
45.3471 122.0
45.3816 99.0
45.4161 98.0
45.4505 114.0
45.485 119.0
45.5195 115.0
45.5539 95.0
45.5884 93.0
45.6229 96.0
45.6573 115.0
45.6918 107.0
45.7263 103.0
45.7607 113.0
45.7952 115.0
45.8297 103.0
45.8641 105.0
45.8986 95.0
45.9331 112.0
45.9675 116.0
46.002 112.0
46.0365 106.0
46.0709 131.0
46.1054 102.0
46.1399 99.0
46.1743 115.0
46.2088 104.0
46.2433 128.0
46.2777 125.0
46.3122 114.0
46.3467 119.0
46.3811 109.0
46.4156 106.0
46.4501 113.0
46.4845 109.0
46.519 97.0
46.5535 98.0
46.5879 110.0
46.6224 103.0
46.6569 128.0
46.6913 132.0
46.7258 127.0
46.7603 133.0
46.7947 119.0
46.8292 108.0
46.8637 109.0
46.8981 155.0
46.9326 131.0
46.9671 157.0
47.0015 128.0
47.036 191.0
47.0705 495.0
47.1049 1614.0
47.1394 1545.0
47.1739 598.0
47.2083 499.0
47.2428 308.0
47.2773 184.0
47.3118 166.0
47.3462 174.0
47.3807 144.0
47.4152 140.0
47.4496 149.0
47.4841 136.0
47.5186 127.0
47.553 123.0
47.5875 117.0
47.622 121.0
47.6564 129.0
47.6909 130.0
47.7254 145.0
47.7598 121.0
47.7943 153.0
47.8288 121.0
47.8632 124.0
47.8977 147.0
47.9322 131.0
47.9666 146.0
48.0011 120.0
48.0356 135.0
48.07 145.0
48.1045 127.0
48.139 146.0
48.1734 148.0
48.2079 136.0
48.2424 134.0
48.2768 150.0
48.3113 154.0
48.3458 162.0
48.3802 143.0
48.4147 150.0
48.4492 151.0
48.4836 117.0
48.5181 164.0
48.5526 176.0
48.587 148.0
48.6215 147.0
48.656 155.0
48.6904 160.0
48.7249 171.0
48.7594 171.0
48.7938 186.0
48.8283 183.0
48.8628 169.0
48.8972 197.0
48.9317 215.0
48.9662 200.0
49.0006 243.0
49.0351 214.0
49.0696 249.0
49.104 286.0
49.1385 249.0
49.173 277.0
49.2074 271.0
49.2419 322.0
49.2764 352.0
49.3108 367.0
49.3453 453.0
49.3798 531.0
49.4142 566.0
49.4487 666.0
49.4832 841.0
49.5176 995.0
49.5521 1276.0
49.5866 1746.0
49.621 2183.0
49.6555 2770.0
49.69 3305.0
49.7244 3977.0
49.7589 4477.0
49.7934 4954.0
49.8278 5286.0
49.8623 5413.0
49.8968 5339.0
49.9312 5080.0
49.9657 4904.0
50.0002 4445.0
50.0346 3946.0
50.0691 3645.0
50.1036 3078.0
50.138 2638.0
50.1725 2271.0
50.207 1835.0
50.2414 1572.0
50.2759 1325.0
50.3104 1106.0
50.3448 960.0
50.3793 844.0
50.4138 708.0
50.4482 619.0
50.4827 506.0
50.5172 472.0
50.5516 429.0
50.5861 477.0
50.6206 372.0
50.655 355.0
50.6895 342.0
50.724 319.0
50.7584 300.0
50.7929 296.0
50.8274 308.0
50.8619 306.0
50.8963 294.0
50.9308 310.0
50.9653 318.0
50.9997 308.0
51.0342 335.0
51.0687 316.0
51.1031 355.0
51.1376 344.0
51.1721 346.0
51.2065 389.0
51.241 374.0
51.2755 388.0
51.3099 481.0
51.3444 402.0
51.3789 445.0
51.4133 420.0
51.4478 464.0
51.4823 482.0
51.5167 517.0
51.5512 497.0
51.5857 567.0
51.6201 572.0
51.6546 573.0
51.6891 601.0
51.7235 655.0
51.758 681.0
51.7925 704.0
51.8269 735.0
51.8614 798.0
51.8959 821.0
51.9303 852.0
51.9648 953.0
51.9993 1043.0
52.0337 1110.0
52.0682 1296.0
52.1027 1452.0
52.1371 1555.0
52.1716 1863.0
52.2061 2813.0
52.2405 4145.0
52.275 5415.0
52.3095 5338.0
52.3439 5411.0
52.3784 6979.0
52.4129 12359.0
52.4473 31926.0
52.4818 260219.0
52.5163 450892.0
52.5507 115685.0
52.5852 34707.0
52.6197 116066.0
52.6541 225820.0
52.6886 75050.0
52.7231 14825.0
52.7575 7312.0
52.792 4833.0
52.8265 3500.0
52.8609 2809.0
52.8954 2345.0
52.9299 2016.0
52.9643 1712.0
52.9988 1462.0
53.0333 1261.0
53.0677 1157.0
53.1022 988.0
53.1367 889.0
53.1711 846.0
53.2056 775.0
53.2401 722.0
53.2745 701.0
53.309 654.0
53.3435 604.0
53.3779 529.0
53.4124 489.0
53.4469 503.0
53.4813 450.0
53.5158 401.0
53.5503 377.0
53.5847 358.0
53.6192 304.0
53.6537 308.0
53.6881 339.0
53.7226 329.0
53.7571 275.0
53.7915 263.0
53.826 259.0
53.8605 258.0
53.8949 231.0
53.9294 219.0
53.9639 198.0
53.9983 226.0
54.0328 186.0
54.0673 177.0
54.1017 172.0
54.1362 210.0
54.1707 191.0
54.2051 197.0
54.2396 169.0
54.2741 168.0
54.3085 154.0
54.343 166.0
54.3775 171.0
54.412 163.0
54.4464 152.0
54.4809 142.0
54.5154 165.0
54.5498 152.0
54.5843 148.0
54.6188 153.0
54.6532 153.0
54.6877 144.0
54.7222 148.0
54.7566 155.0
54.7911 154.0
54.8256 156.0
54.86 146.0
54.8945 145.0
54.929 125.0
54.9634 147.0
54.9979 151.0