Folder: DataAnalysis/data/W6903r/XRD_Omega

Note: data/W6903r/XRD_Omega/W6903r_omega_peaks.TXT
No.	Pos. [記mega]	FWHM Left [記mega]	Area [cts*記mega]	Backgr.[cts]	d-spacing [魔	Height [cts]	Shape Left	Status	Integral Breadth [記mega]	FWHM Right [記mega]	Shape Right	Obs. Lorentz B [記mega]	Obs. Gauss B [記mega]	Instr. Lorentz B [記mega]	Instr. Gauss B [記mega]	Crystallite Size [魔	Micro Strain [%]	Crystallite Size only [魔	Micro Strain only [%]
1	25,1429(6)	0,988(1)	2146,41	80,09	 	1936(3)	0,159(3)	Included	1,108733	 	 	0,201536	0,975120	0,074584	0,063183	712,384200	1,903928	85,711690	2,064509

Note: README.md
# Methods
## RSM analysis

Check out [doc](documentation/RSM.md)

File: scan_omega_4deg_step_0.005deg0_C4.xy
23.17830 91.0
23.19330 76.0
23.20830 74.0
23.22330 73.0
23.23830 94.0
23.25330 85.0
23.26830 79.0
23.28330 80.0
23.29830 94.0
23.31330 98.0
23.32830 107.0
23.34330 77.0
23.35830 84.0
23.37330 99.0
23.38830 90.0
23.40330 80.0
23.41830 81.0
23.43330 83.0
23.44830 82.0
23.46330 97.0
23.47830 89.0
23.49330 110.0
23.50830 102.0
23.52330 105.0
23.53830 96.0
23.55330 93.0
23.56830 90.0
23.58330 105.0
23.59830 105.0
23.61330 114.0
23.62830 120.0
23.64330 103.0
23.65830 105.0
23.67330 146.0
23.68830 121.0
23.70330 124.0
23.71830 94.0
23.73330 152.0
23.74830 145.0
23.76330 143.0
23.77830 162.0
23.79330 160.0
23.80830 142.0
23.82330 140.0
23.83830 163.0
23.85330 161.0
23.86830 185.0
23.88330 189.0
23.89830 176.0
23.91330 178.0
23.92830 189.0
23.94330 203.0
23.95830 187.0
23.97330 192.0
23.98830 210.0
24.00330 213.0
24.01830 224.0
24.03330 225.0
24.04830 228.0
24.06330 268.0
24.07830 261.0
24.09330 325.0
24.10830 294.0
24.12330 272.0
24.13830 321.0
24.15330 329.0
24.16830 320.0
24.18330 370.0
24.19830 343.0
24.21330 376.0
24.22830 431.0
24.24330 410.0
24.25830 451.0
24.27330 491.0
24.28830 475.0
24.30330 478.0
24.31830 533.0
24.33330 537.0
24.34830 590.0
24.36330 604.0
24.37830 648.0
24.39330 643.0
24.40830 679.0
24.42330 704.0
24.43830 755.0
24.45330 822.0
24.46830 848.0
24.48330 853.0
24.49830 922.0
24.51330 982.0
24.52830 967.0
24.54330 1035.0
24.55830 1044.0
24.57330 1173.0
24.58830 1197.0
24.60330 1254.0
24.61830 1304.0
24.63330 1337.0
24.64830 1405.0
24.66330 1497.0
24.67830 1511.0
24.69330 1579.0
24.70830 1674.0
24.72330 1688.0
24.73830 1808.0
24.75330 1804.0
24.76830 1887.0
24.78330 2020.0
24.79830 2020.0
24.81330 2013.0
24.82830 2103.0
24.84330 2168.0
24.85830 2231.0
24.87330 2333.0
24.88830 2364.0
24.90330 2422.0
24.91830 2525.0
24.93330 2575.0
24.94830 2603.0
24.96330 2699.0
24.97830 2641.0
24.99330 2845.0
25.00830 2815.0
25.02330 2842.0
25.03830 2970.0
25.05330 2965.0
25.06830 3060.0
25.08330 2984.0
25.09830 2935.0
25.11330 3070.0
25.12830 3072.0
25.14330 3026.0
25.15830 3172.0
25.17330 3026.0
25.18830 3075.0
25.20330 3034.0
25.21830 3060.0
25.23330 3007.0
25.24830 3051.0
25.26330 3073.0
25.27830 2950.0
25.29330 2959.0
25.30830 2734.0
25.32330 2805.0
25.33830 2695.0
25.35330 2727.0
25.36830 2654.0
25.38330 2606.0
25.39830 2462.0
25.41330 2480.0
25.42830 2421.0
25.44330 2389.0
25.45830 2301.0
25.47330 2188.0
25.48830 2200.0
25.50330 2094.0
25.51830 2028.0
25.53330 2000.0
25.54830 1854.0
25.56330 1839.0
25.57830 1779.0
25.59330 1640.0
25.60830 1678.0
25.62330 1680.0
25.63830 1541.0
25.65330 1479.0
25.66830 1420.0
25.68330 1327.0
25.69830 1340.0
25.71330 1230.0
25.72830 1242.0
25.74330 1113.0
25.75830 1064.0
25.77330 1044.0
25.78830 969.0
25.80330 997.0
25.81830 989.0
25.83330 920.0
25.84830 786.0
25.86330 812.0
25.87830 777.0
25.89330 689.0
25.90830 679.0
25.92330 640.0
25.93830 670.0
25.95330 587.0
25.96830 597.0
25.98330 544.0
25.99830 573.0
26.01330 531.0
26.02830 521.0
26.04330 462.0
26.05830 492.0
26.07330 412.0
26.08830 385.0
26.10330 365.0
26.11830 374.0
26.13330 372.0
26.14830 339.0
26.16330 316.0
26.17830 325.0
26.19330 303.0
26.20830 297.0
26.22330 264.0
26.23830 261.0
26.25330 256.0
26.26830 251.0
26.28330 236.0
26.29830 249.0
26.31330 214.0
26.32830 210.0
26.34330 193.0
26.35830 184.0
26.37330 192.0
26.38830 181.0
26.40330 174.0
26.41830 156.0
26.43330 146.0
26.44830 176.0
26.46330 166.0
26.47830 149.0
26.49330 146.0
26.50830 129.0
26.52330 142.0
26.53830 141.0
26.55330 129.0
26.56830 143.0
26.58330 113.0
26.59830 106.0
26.61330 126.0
26.62830 127.0
26.64330 113.0
26.65830 128.0
26.67330 99.0
26.68830 99.0
26.70330 105.0
26.71830 114.0
26.73330 86.0
26.74830 109.0
26.76330 91.0
26.77830 103.0
26.79330 108.0
26.80830 87.0
26.82330 91.0
26.83830 118.0
26.85330 100.0
26.86830 98.0
26.88330 82.0
26.89830 89.0
26.91330 70.0
26.92830 87.0
26.94330 88.0
26.95830 82.0
26.97330 73.0
26.98830 66.0
27.00330 81.0
27.01830 86.0
27.03330 86.0
27.04830 78.0
27.06330 67.0
27.07830 76.0
27.09330 76.0
27.10830 69.0
27.12330 82.0
27.13830 69.0