Folder: DataAnalysis/data/W6856m/XRD_2ThetaOmega

Note: data/W6856m/XRD_2ThetaOmega/W6856m_peaks.TXT
No.	Label	Pos. [°2Th.]	FWHM Left [°2Th.]	Area [cts*°2Th.]	Backgr.[cts]	d-spacing [Å]	Height [cts]	Shape Left	Status	Integral Breadth [°2Th.]	FWHM Right [°2Th.]	Shape Right	Obs. Lorentz B [°2Th.]	Obs. Gauss B [°2Th.]	Instr. Lorentz B [°2Th.]	Instr. Gauss B [°2Th.]	Crystallite Size [Å]	Micro Strain [%]	Crystallite Size only [Å]	Micro Strain only [%]
1	Cr2O3 3 0 0	64,145(2)	0,353(6)	151,67	16,40	1,45068	274(4)	1,00(3)	Included	0,554228	 	 	0,551627	0,009360	0,077226	0,065425	219,578300	-0,045088	219,568600	0,330349
2	Al2O3 3 0 0	68,16163(4)	0,0597(1)	2774,22	79,22	1,37465	36816(63)	0,487(2)	Included	0,075354	 	 	0,039656	0,047397	0,078470	0,066478	-2745,742000	-0,030063	33697,910000	0,002040

Note: README.md
# Methods
## RSM analysis

Check out [doc](documentation/RSM.md)

File: W6856m_absolute_2th-om_10-130deg_PIXscan_17min_4.xy
10.0035 23.0
10.4072 15.0
10.811 19.0
11.2147 22.0
11.6185 18.0
12.0222 16.0
12.426 12.0
12.8298 19.0
13.2335 18.0
13.6373 23.0
14.041 17.0
14.4448 10.0
14.8485 11.0
15.2523 14.0
15.656 13.0
16.0598 15.0
16.4636 18.0
16.8673 20.0
17.2711 21.0
17.6748 11.0
18.0786 18.0
18.4823 9.0
18.8861 13.0
19.2899 14.0
19.6936 13.0
20.0974 13.0
20.5011 12.0
20.9049 16.0
21.3086 16.0
21.7124 12.0
22.1161 13.0
22.5199 14.0
22.9237 13.0
23.3274 8.0
23.7312 8.0
24.1349 9.0
24.5387 8.0
24.9424 16.0
25.3462 11.0
25.75 8.0
26.1537 5.0
26.5575 12.0
26.9612 8.0
27.365 9.0
27.7687 11.0
28.1725 17.0
28.5762 8.0
28.98 6.0
29.3838 15.0
29.7875 8.0
30.1913 8.0
30.595 11.0
30.9988 9.0
31.4025 3.0
31.8063 4.0
32.2101 9.0
32.6138 7.0
33.0176 9.0
33.4213 10.0
33.8251 18.0
34.2288 11.0
34.6326 8.0
35.0363 10.0
35.4401 8.0
35.8439 10.0
36.2476 10.0
36.6514 10.0
37.0551 13.0
37.4589 6.0
37.8626 10.0
38.2664 15.0
38.6702 10.0
39.0739 18.0
39.4777 9.0
39.8814 4.0
40.2852 8.0
40.6889 12.0
41.0927 8.0
41.4964 7.0
41.9002 5.0
42.304 12.0
42.7077 8.0
43.1115 14.0
43.5152 12.0
43.919 10.0
44.3227 19.0
44.7265 12.0
45.1303 13.0
45.534 12.0
45.9378 7.0
46.3415 14.0
46.7453 5.0
47.149 13.0
47.5528 12.0
47.9565 6.0
48.3603 8.0
48.7641 5.0
49.1678 8.0
49.5716 9.0
49.9753 11.0
50.3791 19.0
50.7828 11.0
51.1866 10.0
51.5903 15.0
51.9941 7.0
52.3979 12.0
52.8016 16.0
53.2054 7.0
53.6091 11.0
54.0129 13.0
54.4166 9.0
54.8204 6.0
55.2242 18.0
55.6279 14.0
56.0317 7.0
56.4354 14.0
56.8392 14.0
57.2429 9.0
57.6467 17.0
58.0504 12.0
58.4542 11.0
58.858 9.0
59.2617 11.0
59.6655 10.0
60.0692 10.0
60.473 14.0
60.8767 64.0
61.2805 10.0
61.6843 15.0
62.088 8.0
62.4918 5.0
62.8955 15.0
63.2993 28.0
63.703 72.0
64.1068 332.0
64.5105 134.0
64.9143 154.0
65.3181 23.0
65.7218 21.0
66.1256 24.0
66.5293 28.0
66.9331 22.0
67.3368 37.0
67.7406 130.0
68.1444 29667.0
68.5481 404.0
68.9519 102.0
69.3556 76.0
69.7594 46.0
70.1631 51.0
70.5669 22.0
70.9706 16.0
71.3744 18.0
71.7782 14.0
72.1819 17.0
72.5857 16.0
72.9894 15.0
73.3932 12.0
73.7969 5.0
74.2007 10.0
74.6045 9.0
75.0082 16.0
75.412 11.0
75.8157 9.0
76.2195 10.0
76.6232 12.0
77.027 14.0
77.4307 10.0
77.8345 11.0
78.2383 11.0
78.642 9.0
79.0458 10.0
79.4495 13.0
79.8533 7.0
80.257 13.0
80.6608 9.0
81.0646 16.0
81.4683 4.0
81.8721 7.0
82.2758 8.0
82.6796 6.0
83.0833 12.0
83.4871 10.0
83.8908 11.0
84.2946 14.0
84.6984 6.0
85.1021 11.0
85.5059 11.0
85.9096 11.0
86.3134 16.0
86.7171 9.0
87.1209 11.0
87.5247 11.0
87.9284 15.0
88.3322 7.0
88.7359 7.0
89.1397 9.0
89.5434 13.0
89.9472 2.0
90.3509 9.0
90.7547 7.0
91.1585 5.0
91.5622 5.0
91.966 9.0
92.3697 10.0
92.7735 6.0
93.1772 12.0
93.581 11.0
93.9848 11.0
94.3885 14.0
94.7923 10.0
95.196 13.0
95.5998 8.0
96.0035 7.0
96.4073 7.0
96.811 9.0
97.2148 5.0
97.6186 12.0
98.0223 11.0
98.4261 12.0
98.8298 8.0
99.2336 8.0
99.6373 6.0
100.041 18.0
100.445 5.0
100.849 11.0
101.252 3.0
101.656 2.0
102.06 6.0
102.464 15.0
102.867 11.0
103.271 15.0
103.675 10.0
104.079 7.0
104.482 5.0
104.886 11.0
105.29 9.0
105.694 6.0
106.097 7.0
106.501 9.0
106.905 5.0
107.309 12.0
107.712 14.0
108.116 10.0
108.52 9.0
108.924 10.0
109.327 12.0
109.731 11.0
110.135 8.0
110.539 8.0
110.943 19.0
111.346 14.0
111.75 9.0
112.154 10.0
112.558 13.0
112.961 13.0
113.365 13.0
113.769 9.0
114.173 13.0
114.576 16.0
114.98 17.0
115.384 11.0
115.788 13.0
116.191 9.0
116.595 18.0
116.999 14.0
117.403 7.0
117.806 15.0
118.21 9.0
118.614 12.0
119.018 10.0
119.421 9.0
119.825 17.0
120.229 8.0
120.633 16.0
121.036 13.0
121.44 10.0
121.844 12.0
122.248 8.0
122.651 18.0
123.055 6.0
123.459 12.0
123.863 15.0
124.266 14.0
124.67 13.0
125.074 17.0
125.478 11.0
125.881 10.0
126.285 3.0
126.689 16.0
127.093 10.0
127.497 19.0
127.9 12.0
128.304 9.0
128.708 11.0
129.112 12.0
129.515 13.0
129.919 15.0
129.998 14.0