Folder: DataAnalysis/data/W6856m/XRD_Omega

Note: README.md
# Methods
## RSM analysis

Check out [doc](documentation/RSM.md)

File: W6856m_Cr2O3_scan_omega_2deg_step_0.002deg0_4.xy
31.71980 600.0
31.72780 559.0
31.73580 595.0
31.74380 644.0
31.75180 572.0
31.75980 641.0
31.76780 631.0
31.77580 646.0
31.78380 628.0
31.79180 674.0
31.79980 625.0
31.80780 690.0
31.81580 671.0
31.82380 643.0
31.83180 724.0
31.83980 729.0
31.84780 741.0
31.85580 779.0
31.86380 756.0
31.87180 812.0
31.87980 783.0
31.88780 753.0
31.89580 800.0
31.90380 808.0
31.91180 829.0
31.91980 849.0
31.92780 843.0
31.93580 859.0
31.94380 858.0
31.95180 864.0
31.95980 873.0
31.96780 876.0
31.97580 884.0
31.98380 967.0
31.99180 912.0
31.99980 901.0
32.00780 1019.0
32.01580 1003.0
32.02380 1023.0
32.03180 1112.0
32.03980 1004.0
32.04780 1092.0
32.05580 1092.0
32.06380 1059.0
32.07180 1122.0
32.07980 1112.0
32.08780 1108.0
32.09580 1164.0
32.10380 1209.0
32.11180 1188.0
32.11980 1202.0
32.12780 1222.0
32.13580 1287.0
32.14380 1229.0
32.15180 1273.0
32.15980 1286.0
32.16780 1256.0
32.17580 1322.0
32.18380 1412.0
32.19180 1396.0
32.19980 1476.0
32.20780 1420.0
32.21580 1434.0
32.22380 1447.0
32.23180 1477.0
32.23980 1474.0
32.24780 1504.0
32.25580 1586.0
32.26380 1563.0
32.27180 1654.0
32.27980 1709.0
32.28780 1613.0
32.29580 1593.0
32.30380 1671.0
32.31180 1603.0
32.31980 1655.0
32.32780 1748.0
32.33580 1743.0
32.34380 1774.0
32.35180 1808.0
32.35980 1871.0
32.36780 1836.0
32.37580 1875.0
32.38380 1972.0
32.39180 1986.0
32.39980 1913.0
32.40780 1960.0
32.41580 1977.0
32.42380 1902.0
32.43180 1909.0
32.43980 2046.0
32.44780 2023.0
32.45580 1942.0
32.46380 2009.0
32.47180 1986.0
32.47980 2064.0
32.48780 2098.0
32.49580 2089.0
32.50380 2139.0
32.51180 2185.0
32.51980 2220.0
32.52780 2165.0
32.53580 2172.0
32.54380 2296.0
32.55180 2281.0
32.55980 2333.0
32.56780 2421.0
32.57580 2408.0
32.58380 2644.0
32.59180 2829.0
32.59980 3112.0
32.60780 3461.0
32.61580 3603.0
32.62380 3658.0
32.63180 3453.0
32.63980 3190.0
32.64780 2954.0
32.65580 2820.0
32.66380 2880.0
32.67180 2832.0
32.67980 2826.0
32.68780 2832.0
32.69580 2880.0
32.70380 2717.0
32.71180 2711.0
32.71980 2569.0
32.72780 2510.0
32.73580 2489.0
32.74380 2529.0
32.75180 2585.0
32.75980 2523.0
32.76780 2497.0
32.77580 2445.0
32.78380 2404.0
32.79180 2355.0
32.79980 2291.0
32.80780 2332.0
32.81580 2219.0
32.82380 2255.0
32.83180 2307.0
32.83980 2314.0
32.84780 2300.0
32.85580 2310.0
32.86380 2147.0
32.87180 2194.0
32.87980 2199.0
32.88780 2147.0
32.89580 2170.0
32.90380 2182.0
32.91180 1980.0
32.91980 1991.0
32.92780 2087.0
32.93580 2006.0
32.94380 1974.0
32.95180 1912.0
32.95980 1934.0
32.96780 1838.0
32.97580 1852.0
32.98380 1813.0
32.99180 1838.0
32.99980 1751.0
33.00780 1801.0
33.01580 1710.0
33.02380 1731.0
33.03180 1675.0
33.03980 1732.0
33.04780 1645.0
33.05580 1622.0
33.06380 1624.0
33.07180 1638.0
33.07980 1615.0
33.08780 1550.0
33.09580 1575.0
33.10380 1507.0
33.11180 1430.0
33.11980 1429.0
33.12780 1403.0
33.13580 1388.0
33.14380 1453.0
33.15180 1385.0
33.15980 1359.0
33.16780 1387.0
33.17580 1306.0
33.18380 1318.0
33.19180 1275.0
33.19980 1247.0
33.20780 1257.0
33.21580 1181.0
33.22380 1201.0
33.23180 1170.0
33.23980 1166.0
33.24780 1093.0
33.25580 1075.0
33.26380 1104.0
33.27180 1126.0
33.27980 1091.0
33.28780 1039.0
33.29580 1027.0
33.30380 1034.0
33.31180 982.0
33.31980 1017.0
33.32780 937.0
33.33580 944.0
33.34380 936.0
33.35180 911.0
33.35980 909.0
33.36780 790.0
33.37580 839.0
33.38380 794.0
33.39180 840.0
33.39980 773.0
33.40780 776.0
33.41580 784.0
33.42380 818.0
33.43180 749.0
33.43980 780.0
33.44780 785.0
33.45580 694.0
33.46380 687.0
33.47180 661.0
33.47980 687.0
33.48780 669.0
33.49580 657.0
33.50380 694.0
33.51180 668.0
33.51980 621.0
33.52780 566.0
33.53580 638.0
33.54380 581.0
33.55180 569.0
33.55980 559.0
33.56780 541.0
33.57580 546.0
33.58380 516.0
33.59180 512.0
33.59980 520.0
33.60780 501.0
33.61580 507.0
33.62380 505.0
33.63180 529.0
33.63980 514.0
33.64780 468.0
33.65580 447.0
33.66380 449.0
33.67180 446.0
33.67980 489.0
33.68780 477.0
33.69580 393.0
33.70380 454.0