Folder: DataAnalysis/data/W6903a/XRD_Omega

Note: data/W6903a/XRD_Omega/W6903a_omega_peaks.TXT
No.	Label	Pos. [記mega]	FWHM Left [記mega]	Area [cts*記mega]	Backgr.[cts]	d-spacing [魔	Height [cts]	Shape Left	Status	Integral Breadth [記mega]	FWHM Right [記mega]	Shape Right	Obs. Lorentz B [記mega]	Obs. Gauss B [記mega]	Instr. Lorentz B [記mega]	Instr. Gauss B [記mega]	Crystallite Size [魔	Micro Strain [%]	Crystallite Size only [魔	Micro Strain only [%]
1	Cr2O3 1 1 0	17,5573(5)	1,249(1)	6202,76	373,27	 	4404(5)	0,174(3)	Included	1,408509	 	 	0,280448	1,221759	0,075503	0,063959	435,803600	3,447339	65,993380	3,824052

Note: README.md
# Methods
## RSM analysis

Check out [doc](documentation/RSM.md)

File: scan_omega_4deg_step_0.005deg0_C4_1.xy
15.57650 340.0
15.59150 363.0
15.60650 353.0
15.62150 382.0
15.63650 329.0
15.65150 363.0
15.66650 389.0
15.68150 390.0
15.69650 422.0
15.71150 378.0
15.72650 420.0
15.74150 404.0
15.75650 442.0
15.77150 407.0
15.78650 428.0
15.80150 442.0
15.81650 460.0
15.83150 436.0
15.84650 488.0
15.86150 448.0
15.87650 494.0
15.89150 516.0
15.90650 511.0
15.92150 475.0
15.93650 559.0
15.95150 510.0
15.96650 582.0
15.98150 593.0
15.99650 548.0
16.01150 610.0
16.02650 591.0
16.04150 655.0
16.05650 675.0
16.07150 629.0
16.08650 696.0
16.10150 687.0
16.11650 646.0
16.13150 725.0
16.14650 669.0
16.16150 774.0
16.17650 819.0
16.19150 837.0
16.20650 833.0
16.22150 787.0
16.23650 886.0
16.25150 840.0
16.26650 880.0
16.28150 938.0
16.29650 960.0
16.31150 1046.0
16.32650 1004.0
16.34150 1017.0
16.35650 1033.0
16.37150 1154.0
16.38650 1133.0
16.40150 1168.0
16.41650 1163.0
16.43150 1262.0
16.44650 1288.0
16.46150 1380.0
16.47650 1361.0
16.49150 1453.0
16.50650 1400.0
16.52150 1533.0
16.53650 1543.0
16.55150 1619.0
16.56650 1555.0
16.58150 1690.0
16.59650 1717.0
16.61150 1769.0
16.62650 1860.0
16.64150 1817.0
16.65650 1896.0
16.67150 2026.0
16.68650 2056.0
16.70150 2211.0
16.71650 2272.0
16.73150 2296.0
16.74650 2285.0
16.76150 2450.0
16.77650 2374.0
16.79150 2528.0
16.80650 2621.0
16.82150 2817.0
16.83650 2760.0
16.85150 2850.0
16.86650 2846.0
16.88150 3070.0
16.89650 3152.0
16.91150 3335.0
16.92650 3403.0
16.94150 3397.0
16.95650 3580.0
16.97150 3654.0
16.98650 3776.0
17.00150 3838.0
17.01650 3850.0
17.03150 4013.0
17.04650 4149.0
17.06150 4187.0
17.07650 4257.0
17.09150 4492.0
17.10650 4658.0
17.12150 4694.0
17.13650 4925.0
17.15150 4964.0
17.16650 5115.0
17.18150 5258.0
17.19650 5377.0
17.21150 5488.0
17.22650 5579.0
17.24150 5692.0
17.25650 5772.0
17.27150 5865.0
17.28650 5955.0
17.30150 6096.0
17.31650 6008.0
17.33150 6259.0
17.34650 6346.0
17.36150 6491.0
17.37650 6597.0
17.39150 6549.0
17.40650 6746.0
17.42150 7003.0
17.43650 7107.0
17.45150 7294.0
17.46650 7429.0
17.48150 7615.0
17.49650 7602.0
17.51150 8015.0
17.52650 7992.0
17.54150 7871.0
17.55650 7935.0
17.57150 7869.0
17.58650 7576.0
17.60150 7452.0
17.61650 7454.0
17.63150 7179.0
17.64650 7145.0
17.66150 7181.0
17.67650 7170.0
17.69150 6849.0
17.70650 6808.0
17.72150 6664.0
17.73650 6607.0
17.75150 6589.0
17.76650 6529.0
17.78150 6370.0
17.79650 6308.0
17.81150 6262.0
17.82650 6011.0
17.84150 5940.0
17.85650 5977.0
17.87150 5723.0
17.88650 5830.0
17.90150 5580.0
17.91650 5381.0
17.93150 5447.0
17.94650 5132.0
17.96150 5115.0
17.97650 5077.0
17.99150 4888.0
18.00650 4813.0
18.02150 4642.0
18.03650 4646.0
18.05150 4396.0
18.06650 4316.0
18.08150 4323.0
18.09650 4234.0
18.11150 4155.0
18.12650 3914.0
18.14150 3933.0
18.15650 3727.0
18.17150 3634.0
18.18650 3591.0
18.20150 3525.0
18.21650 3380.0
18.23150 3287.0
18.24650 3164.0
18.26150 3079.0
18.27650 2973.0
18.29150 3019.0
18.30650 2823.0
18.32150 2726.0
18.33650 2721.0
18.35150 2622.0
18.36650 2528.0
18.38150 2404.0
18.39650 2393.0
18.41150 2310.0
18.42650 2242.0
18.44150 2151.0
18.45650 2156.0
18.47150 1937.0
18.48650 1960.0
18.50150 2033.0
18.51650 1927.0
18.53150 1794.0
18.54650 1786.0
18.56150 1738.0
18.57650 1648.0
18.59150 1569.0
18.60650 1522.0
18.62150 1464.0
18.63650 1489.0
18.65150 1454.0
18.66650 1337.0
18.68150 1326.0
18.69650 1286.0
18.71150 1179.0
18.72650 1226.0
18.74150 1137.0
18.75650 1123.0
18.77150 1121.0
18.78650 1012.0
18.80150 1020.0
18.81650 983.0
18.83150 980.0
18.84650 943.0
18.86150 903.0
18.87650 833.0
18.89150 863.0
18.90650 892.0
18.92150 795.0
18.93650 793.0
18.95150 758.0
18.96650 778.0
18.98150 767.0
18.99650 749.0
19.01150 698.0
19.02650 722.0
19.04150 724.0
19.05650 709.0
19.07150 575.0
19.08650 631.0
19.10150 587.0
19.11650 606.0
19.13150 545.0
19.14650 571.0
19.16150 526.0
19.17650 535.0
19.19150 497.0
19.20650 513.0
19.22150 497.0
19.23650 457.0
19.25150 458.0
19.26650 459.0
19.28150 476.0
19.29650 423.0
19.31150 413.0
19.32650 421.0
19.34150 407.0
19.35650 381.0
19.37150 423.0
19.38650 381.0
19.40150 384.0
19.41650 361.0
19.43150 352.0
19.44650 319.0
19.46150 355.0
19.47650 373.0
19.49150 325.0
19.50650 372.0
19.52150 339.0
19.53650 344.0