Folder: DataAnalysis/data/W6903a/XRD_2ThetaOmega

Note: data/W6903a/XRD_2ThetaOmega/W6903a_peaks.TXT
No.	Label	Pos. [°2Th.]	FWHM Left [°2Th.]	Area [cts*°2Th.]	Backgr.[cts]	d-spacing [Å]	Height [cts]	Shape Left	Status	Integral Breadth [°2Th.]	FWHM Right [°2Th.]	Shape Right	Obs. Lorentz B [°2Th.]	Obs. Gauss B [°2Th.]	Instr. Lorentz B [°2Th.]	Instr. Gauss B [°2Th.]	Crystallite Size [Å]	Micro Strain [%]	Crystallite Size only [Å]	Micro Strain only [%]
1	Cr2O3 1 1 0	35,5327(1)	0,1653(4)	4289,10	240,02	2,52445	19441(37)	0,628(3)	Included	0,220620	 	 	0,146492	0,113996	0,073959	0,062655	1277,909000	0,129685	632,416500	0,199587
2	Al2O3 1 1 0	37,67312(1)	0,04731(3)	17383,84	281,44	2,38579	305845(194)	0,3534(9)	Included	0,056839	 	 	0,022196	0,041553	0,073931	0,062631	-1802,739000	-0,059938	29489,580000	0,004045

Note: README.md
# Methods
## RSM analysis

Check out [doc](documentation/RSM.md)

File: scan_2th-om_a_Cr2O3_30-40deg_PIXscan_4min_3.xy
30.0025 112.0
30.0369 99.0
30.0714 67.0
30.1059 110.0
30.1403 99.0
30.1748 92.0
30.2093 103.0
30.2437 112.0
30.2782 119.0
30.3127 107.0
30.3471 106.0
30.3816 102.0
30.4161 111.0
30.4505 109.0
30.485 80.0
30.5195 74.0
30.5539 106.0
30.5884 104.0
30.6229 91.0
30.6573 82.0
30.6918 94.0
30.7263 98.0
30.7607 119.0
30.7952 103.0
30.8297 112.0
30.8641 118.0
30.8986 96.0
30.9331 128.0
30.9675 102.0
31.002 82.0
31.0365 108.0
31.0709 99.0
31.1054 120.0
31.1399 97.0
31.1743 105.0
31.2088 100.0
31.2433 107.0
31.2777 94.0
31.3122 93.0
31.3467 115.0
31.3811 104.0
31.4156 113.0
31.4501 113.0
31.4845 100.0
31.519 104.0
31.5535 121.0
31.5879 93.0
31.6224 109.0
31.6569 98.0
31.6913 128.0
31.7258 104.0
31.7603 124.0
31.7947 99.0
31.8292 126.0
31.8637 113.0
31.8981 133.0
31.9326 188.0
31.9671 182.0
32.0015 179.0
32.036 185.0
32.0705 167.0
32.1049 141.0
32.1394 130.0
32.1739 129.0
32.2083 116.0
32.2428 102.0
32.2773 118.0
32.3118 115.0
32.3462 113.0
32.3807 99.0
32.4152 104.0
32.4496 129.0
32.4841 94.0
32.5186 116.0
32.553 114.0
32.5875 106.0
32.622 117.0
32.6564 119.0
32.6909 125.0
32.7254 103.0
32.7598 114.0
32.7943 115.0
32.8288 106.0
32.8632 108.0
32.8977 120.0
32.9322 106.0
32.9666 94.0
33.0011 129.0
33.0356 115.0
33.07 108.0
33.1045 111.0
33.139 124.0
33.1734 112.0
33.2079 109.0
33.2424 109.0
33.2768 113.0
33.3113 95.0
33.3458 112.0
33.3802 108.0
33.4147 104.0
33.4492 113.0
33.4836 93.0
33.5181 117.0
33.5526 118.0
33.587 120.0
33.6215 120.0
33.656 121.0
33.6904 124.0
33.7249 135.0
33.7594 135.0
33.7938 141.0
33.8283 148.0
33.8628 216.0
33.8972 1039.0
33.9317 1119.0
33.9662 336.0
34.0006 205.0
34.0351 177.0
34.0696 170.0
34.104 165.0
34.1385 171.0
34.173 174.0
34.2074 141.0
34.2419 161.0
34.2764 180.0
34.3108 174.0
34.3453 141.0
34.3798 157.0
34.4142 180.0
34.4487 183.0
34.4832 159.0
34.5176 176.0
34.5521 188.0
34.5866 223.0
34.621 219.0
34.6555 217.0
34.69 203.0
34.7244 228.0
34.7589 278.0
34.7934 277.0
34.8278 292.0
34.8623 308.0
34.8968 312.0
34.9312 319.0
34.9657 399.0
35.0002 400.0
35.0346 459.0
35.0691 470.0
35.1036 577.0
35.138 559.0
35.1725 681.0
35.207 808.0
35.2414 1034.0
35.2759 1241.0
35.3104 1700.0
35.3448 2409.0
35.3793 3693.0
35.4138 6033.0
35.4482 11237.0
35.4827 18871.0
35.5172 24444.0
35.5516 23849.0
35.5861 21601.0
35.6206 18151.0
35.655 13318.0
35.6895 8678.0
35.724 6152.0
35.7584 4470.0
35.7929 3564.0
35.8274 2851.0
35.8619 2281.0
35.8963 1982.0
35.9308 1742.0
35.9653 1462.0
35.9997 1207.0
36.0342 1071.0
36.0687 1058.0
36.1031 894.0
36.1376 830.0
36.1721 726.0
36.2065 596.0
36.241 566.0
36.2755 517.0
36.3099 502.0
36.3444 498.0
36.3789 384.0
36.4133 399.0
36.4478 392.0
36.4823 417.0
36.5167 332.0
36.5512 342.0
36.5857 368.0
36.6201 365.0
36.6546 347.0
36.6891 348.0
36.7235 311.0
36.758 358.0
36.7925 370.0
36.8269 364.0
36.8614 382.0
36.8959 371.0
36.9303 389.0
36.9648 457.0
36.9993 415.0
37.0337 470.0
37.0682 534.0
37.1027 533.0
37.1371 519.0
37.1716 541.0
37.2061 622.0
37.2405 662.0
37.275 788.0
37.3095 819.0
37.3439 846.0
37.3784 994.0
37.4129 1152.0
37.4473 1633.0
37.4818 2881.0
37.5163 3943.0
37.5507 3913.0
37.5852 6281.0
37.6197 17579.0
37.6541 222962.0
37.6886 256688.0
37.7231 35133.0
37.7575 132170.0
37.792 98754.0
37.8265 10693.0
37.8609 4635.0
37.8954 2834.0
37.9299 2180.0
37.9643 1734.0
37.9988 1419.0
38.0333 1167.0
38.0677 1068.0
38.1022 923.0
38.1367 853.0
38.1711 756.0
38.2056 719.0
38.2401 615.0
38.2745 571.0
38.309 526.0
38.3435 510.0
38.3779 448.0
38.4124 402.0
38.4469 356.0
38.4813 343.0
38.5158 304.0
38.5503 305.0
38.5847 280.0
38.6192 276.0
38.6537 259.0
38.6881 208.0
38.7226 178.0
38.7571 183.0
38.7915 187.0
38.826 162.0
38.8605 165.0
38.8949 169.0
38.9294 145.0
38.9639 160.0
38.9983 142.0
39.0328 135.0
39.0673 137.0
39.1017 149.0
39.1362 125.0
39.1707 150.0
39.2051 139.0
39.2396 129.0
39.2741 136.0
39.3085 112.0
39.343 118.0
39.3775 129.0
39.412 151.0
39.4464 118.0
39.4809 117.0
39.5154 120.0
39.5498 123.0
39.5843 122.0
39.6188 112.0
39.6532 111.0
39.6877 132.0
39.7222 113.0
39.7566 122.0
39.7911 123.0
39.8256 128.0
39.86 119.0
39.8945 127.0
39.929 118.0
39.9634 131.0
39.9979 105.0