Folder: DataAnalysis/data/W6858a/XRD_Omega

Note: README.md
# Methods
## RSM analysis

Check out [doc](documentation/RSM.md)

File: W6858a_Cr2O3_scan_omega_2deg_step_0.002deg0_11.xy
17.03000 348.0
17.03800 327.0
17.04600 357.0
17.05400 359.0
17.06200 393.0
17.07000 359.0
17.07800 387.0
17.08600 363.0
17.09400 401.0
17.10200 371.0
17.11000 362.0
17.11800 392.0
17.12600 350.0
17.13400 410.0
17.14200 413.0
17.15000 428.0
17.15800 431.0
17.16600 379.0
17.17400 427.0
17.18200 429.0
17.19000 414.0
17.19800 434.0
17.20600 488.0
17.21400 466.0
17.22200 450.0
17.23000 460.0
17.23800 484.0
17.24600 516.0
17.25400 485.0
17.26200 545.0
17.27000 571.0
17.27800 530.0
17.28600 535.0
17.29400 580.0
17.30200 556.0
17.31000 557.0
17.31800 573.0
17.32600 594.0
17.33400 598.0
17.34200 597.0
17.35000 586.0
17.35800 640.0
17.36600 580.0
17.37400 652.0
17.38200 657.0
17.39000 660.0
17.39800 677.0
17.40600 705.0
17.41400 747.0
17.42200 743.0
17.43000 758.0
17.43800 805.0
17.44600 827.0
17.45400 832.0
17.46200 893.0
17.47000 833.0
17.47800 887.0
17.48600 907.0
17.49400 882.0
17.50200 956.0
17.51000 969.0
17.51800 1008.0
17.52600 980.0
17.53400 1105.0
17.54200 1021.0
17.55000 1077.0
17.55800 1115.0
17.56600 1036.0
17.57400 1085.0
17.58200 1235.0
17.59000 1244.0
17.59800 1192.0
17.60600 1261.0
17.61400 1312.0
17.62200 1304.0
17.63000 1269.0
17.63800 1397.0
17.64600 1361.0
17.65400 1380.0
17.66200 1464.0
17.67000 1513.0
17.67800 1543.0
17.68600 1608.0
17.69400 1591.0
17.70200 1658.0
17.71000 1632.0
17.71800 1722.0
17.72600 1795.0
17.73400 1797.0
17.74200 1835.0
17.75000 1803.0
17.75800 1953.0
17.76600 1939.0
17.77400 1988.0
17.78200 2095.0
17.79000 2086.0
17.79800 2111.0
17.80600 2212.0
17.81400 2186.0
17.82200 2272.0
17.83000 2448.0
17.83800 2403.0
17.84600 2495.0
17.85400 2522.0
17.86200 2584.0
17.87000 2687.0
17.87800 2824.0
17.88600 2918.0
17.89400 3061.0
17.90200 3142.0
17.91000 3280.0
17.91800 3328.0
17.92600 3532.0
17.93400 3655.0
17.94200 3760.0
17.95000 4127.0
17.95800 4342.0
17.96600 4864.0
17.97400 5446.0
17.98200 5682.0
17.99000 5852.0
17.99800 6058.0
18.00600 6158.0
18.01400 5915.0
18.02200 5781.0
18.03000 5327.0
18.03800 5177.0
18.04600 4960.0
18.05400 4832.0
18.06200 4710.0
18.07000 5035.0
18.07800 5086.0
18.08600 5193.0
18.09400 4642.0
18.10200 4259.0
18.11000 3836.0
18.11800 3631.0
18.12600 3523.0
18.13400 3483.0
18.14200 3332.0
18.15000 3350.0
18.15800 3324.0
18.16600 3117.0
18.17400 3008.0
18.18200 2857.0
18.19000 2761.0
18.19800 2798.0
18.20600 2800.0
18.21400 2958.0
18.22200 2824.0
18.23000 2826.0
18.23800 2507.0
18.24600 2325.0
18.25400 2232.0
18.26200 2156.0
18.27000 2133.0
18.27800 2131.0
18.28600 2015.0
18.29400 2032.0
18.30200 1970.0
18.31000 1888.0
18.31800 1757.0
18.32600 1760.0
18.33400 1716.0
18.34200 1718.0
18.35000 1759.0
18.35800 1617.0
18.36600 1615.0
18.37400 1574.0
18.38200 1521.0
18.39000 1481.0
18.39800 1512.0
18.40600 1444.0
18.41400 1471.0
18.42200 1419.0
18.43000 1357.0
18.43800 1281.0
18.44600 1295.0
18.45400 1264.0
18.46200 1271.0
18.47000 1263.0
18.47800 1303.0
18.48600 1220.0
18.49400 1191.0
18.50200 1211.0
18.51000 1193.0
18.51800 1139.0
18.52600 1123.0
18.53400 1098.0
18.54200 1159.0
18.55000 1111.0
18.55800 1124.0
18.56600 1156.0
18.57400 1088.0
18.58200 1105.0
18.59000 1082.0
18.59800 1137.0
18.60600 1087.0
18.61400 1104.0
18.62200 1103.0
18.63000 1105.0
18.63800 1106.0
18.64600 1089.0
18.65400 1158.0
18.66200 1089.0
18.67000 963.0
18.67800 821.0
18.68600 749.0
18.69400 680.0
18.70200 572.0
18.71000 619.0
18.71800 548.0
18.72600 584.0
18.73400 508.0
18.74200 535.0
18.75000 524.0
18.75800 534.0
18.76600 510.0
18.77400 470.0
18.78200 490.0
18.79000 474.0
18.79800 460.0
18.80600 493.0
18.81400 456.0
18.82200 443.0
18.83000 458.0
18.83800 433.0
18.84600 415.0
18.85400 416.0
18.86200 397.0
18.87000 440.0
18.87800 442.0
18.88600 393.0
18.89400 397.0
18.90200 426.0
18.91000 413.0
18.91800 375.0
18.92600 388.0
18.93400 365.0
18.94200 377.0
18.95000 335.0
18.95800 362.0
18.96600 361.0
18.97400 354.0
18.98200 339.0
18.99000 315.0
18.99800 294.0
19.00600 353.0
19.01400 314.0