Folder: DataAnalysis/data/W6775m/XRD_2ThetaOmega

Note: README.md
# Methods
## RSM analysis

Check out [doc](documentation/RSM.md)

File: W6775m_absolute_2th-om_10-130deg_PIXscan_17min_3.xy
10.0035 27.0
10.4072 22.0
10.811 28.0
11.2147 15.0
11.6185 26.0
12.0222 24.0
12.426 25.0
12.8298 22.0
13.2335 18.0
13.6373 18.0
14.041 23.0
14.4448 24.0
14.8485 20.0
15.2523 24.0
15.656 24.0
16.0598 19.0
16.4636 17.0
16.8673 15.0
17.2711 23.0
17.6748 21.0
18.0786 19.0
18.4823 16.0
18.8861 29.0
19.2899 20.0
19.6936 23.0
20.0974 18.0
20.5011 19.0
20.9049 17.0
21.3086 13.0
21.7124 23.0
22.1161 18.0
22.5199 15.0
22.9237 15.0
23.3274 12.0
23.7312 15.0
24.1349 21.0
24.5387 14.0
24.9424 22.0
25.3462 13.0
25.75 17.0
26.1537 17.0
26.5575 10.0
26.9612 12.0
27.365 12.0
27.7687 14.0
28.1725 15.0
28.5762 11.0
28.98 16.0
29.3838 4.0
29.7875 13.0
30.1913 17.0
30.595 15.0
30.9988 10.0
31.4025 13.0
31.8063 12.0
32.2101 16.0
32.6138 12.0
33.0176 9.0
33.4213 12.0
33.8251 6.0
34.2288 19.0
34.6326 13.0
35.0363 16.0
35.4401 12.0
35.8439 17.0
36.2476 7.0
36.6514 16.0
37.0551 7.0
37.4589 15.0
37.8626 19.0
38.2664 16.0
38.6702 20.0
39.0739 13.0
39.4777 12.0
39.8814 16.0
40.2852 13.0
40.6889 16.0
41.0927 9.0
41.4964 11.0
41.9002 15.0
42.304 20.0
42.7077 11.0
43.1115 10.0
43.5152 19.0
43.919 10.0
44.3227 19.0
44.7265 16.0
45.1303 15.0
45.534 12.0
45.9378 17.0
46.3415 15.0
46.7453 7.0
47.149 14.0
47.5528 9.0
47.9565 8.0
48.3603 17.0
48.7641 15.0
49.1678 4.0
49.5716 14.0
49.9753 10.0
50.3791 7.0
50.7828 10.0
51.1866 7.0
51.5903 14.0
51.9941 18.0
52.3979 13.0
52.8016 21.0
53.2054 13.0
53.6091 14.0
54.0129 14.0
54.4166 12.0
54.8204 17.0
55.2242 17.0
55.6279 13.0
56.0317 11.0
56.4354 10.0
56.8392 9.0
57.2429 13.0
57.6467 12.0
58.0504 4.0
58.4542 16.0
58.858 7.0
59.2617 13.0
59.6655 12.0
60.0692 10.0
60.473 14.0
60.8767 14.0
61.2805 17.0
61.6843 10.0
62.088 11.0
62.4918 12.0
62.8955 13.0
63.2993 12.0
63.703 14.0
64.1068 12.0
64.5105 24.0
64.9143 22.0
65.3181 16.0
65.7218 17.0
66.1256 19.0
66.5293 13.0
66.9331 25.0
67.3368 26.0
67.7406 20.0
68.1444 26.0
68.5481 18.0
68.9519 17.0
69.3556 9.0
69.7594 14.0
70.1631 10.0
70.5669 13.0
70.9706 10.0
71.3744 18.0
71.7782 17.0
72.1819 12.0
72.5857 15.0
72.9894 15.0
73.3932 11.0
73.7969 15.0
74.2007 4.0
74.6045 5.0
75.0082 12.0
75.412 6.0
75.8157 6.0
76.2195 16.0
76.6232 9.0
77.027 10.0
77.4307 14.0
77.8345 7.0
78.2383 12.0
78.642 14.0
79.0458 13.0
79.4495 16.0
79.8533 13.0
80.257 14.0
80.6608 17.0
81.0646 14.0
81.4683 14.0
81.8721 8.0
82.2758 14.0
82.6796 13.0
83.0833 14.0
83.4871 12.0
83.8908 16.0
84.2946 17.0
84.6984 9.0
85.1021 17.0
85.5059 14.0
85.9096 13.0
86.3134 22.0
86.7171 17.0
87.1209 17.0
87.5247 7.0
87.9284 15.0
88.3322 18.0
88.7359 10.0
89.1397 20.0
89.5434 13.0
89.9472 11.0
90.3509 8.0
90.7547 13.0
91.1585 7.0
91.5622 13.0
91.966 11.0
92.3697 9.0
92.7735 8.0
93.1772 12.0
93.581 11.0
93.9848 14.0
94.3885 18.0
94.7923 12.0
95.196 13.0
95.5998 11.0
96.0035 13.0
96.4073 12.0
96.811 12.0
97.2148 19.0
97.6186 13.0
98.0223 11.0
98.4261 13.0
98.8298 9.0
99.2336 11.0
99.6373 13.0
100.041 27.0
100.445 16.0
100.849 13.0
101.252 14.0
101.656 17.0
102.06 15.0
102.464 14.0
102.867 13.0
103.271 10.0
103.675 14.0
104.079 15.0
104.482 9.0
104.886 10.0
105.29 14.0
105.694 10.0
106.097 22.0
106.501 9.0
106.905 17.0
107.309 16.0
107.712 13.0
108.116 15.0
108.52 16.0
108.924 11.0
109.327 18.0
109.731 18.0
110.135 18.0
110.539 16.0
110.943 10.0
111.346 16.0
111.75 11.0
112.154 13.0
112.558 13.0
112.961 12.0
113.365 13.0
113.769 19.0
114.173 11.0
114.576 16.0
114.98 14.0
115.384 15.0
115.788 13.0
116.191 11.0
116.595 9.0
116.999 13.0
117.403 16.0
117.806 12.0
118.21 17.0
118.614 12.0
119.018 10.0
119.421 18.0
119.825 10.0
120.229 10.0
120.633 23.0
121.036 14.0
121.44 12.0
121.844 13.0
122.248 12.0
122.651 17.0
123.055 14.0
123.459 12.0
123.863 17.0
124.266 15.0
124.67 14.0
125.074 7.0
125.478 8.0
125.881 17.0
126.285 13.0
126.689 19.0
127.093 14.0
127.497 5.0
127.9 18.0
128.304 12.0
128.708 26.0
129.112 20.0
129.515 16.0
129.919 18.0
129.998 8.0