Folder: DataAnalysis/data/W6858m/XRD_Omega

Note: README.md
# Methods
## RSM analysis

Check out [doc](documentation/RSM.md)

File: W6858m_Cr2O3_scan_omega_2deg_step_0.002deg0_9.xy
31.31470 724.0
31.32270 730.0
31.33070 710.0
31.33870 737.0
31.34670 766.0
31.35470 804.0
31.36270 778.0
31.37070 784.0
31.37870 819.0
31.38670 871.0
31.39470 854.0
31.40270 883.0
31.41070 864.0
31.41870 952.0
31.42670 938.0
31.43470 932.0
31.44270 997.0
31.45070 1050.0
31.45870 1039.0
31.46670 1004.0
31.47470 1043.0
31.48270 1118.0
31.49070 1136.0
31.49870 1078.0
31.50670 1126.0
31.51470 1100.0
31.52270 1176.0
31.53070 1156.0
31.53870 1258.0
31.54670 1242.0
31.55470 1261.0
31.56270 1223.0
31.57070 1242.0
31.57870 1241.0
31.58670 1267.0
31.59470 1316.0
31.60270 1272.0
31.61070 1363.0
31.61870 1384.0
31.62670 1367.0
31.63470 1347.0
31.64270 1378.0
31.65070 1405.0
31.65870 1462.0
31.66670 1329.0
31.67470 1435.0
31.68270 1572.0
31.69070 1358.0
31.69870 1540.0
31.70670 1450.0
31.71470 1410.0
31.72270 1550.0
31.73070 1460.0
31.73870 1575.0
31.74670 1529.0
31.75470 1531.0
31.76270 1534.0
31.77070 1585.0
31.77870 1506.0
31.78670 1580.0
31.79470 1523.0
31.80270 1501.0
31.81070 1491.0
31.81870 1452.0
31.82670 1580.0
31.83470 1553.0
31.84270 1519.0
31.85070 1521.0
31.85870 1499.0
31.86670 1451.0
31.87470 1593.0
31.88270 1454.0
31.89070 1435.0
31.89870 1482.0
31.90670 1445.0
31.91470 1504.0
31.92270 1429.0
31.93070 1479.0
31.93870 1449.0
31.94670 1441.0
31.95470 1441.0
31.96270 1427.0
31.97070 1379.0
31.97870 1353.0
31.98670 1384.0
31.99470 1411.0
32.00270 1398.0
32.01070 1323.0
32.01870 1402.0
32.02670 1312.0
32.03470 1323.0
32.04270 1340.0
32.05070 1384.0
32.05870 1220.0
32.06670 1332.0
32.07470 1331.0
32.08270 1273.0
32.09070 1305.0
32.09870 1222.0
32.10670 1244.0
32.11470 1200.0
32.12270 1288.0
32.13070 1167.0
32.13870 1133.0
32.14670 1113.0
32.15470 1112.0
32.16270 1097.0
32.17070 1145.0
32.17870 1099.0
32.18670 1059.0
32.19470 1065.0
32.20270 1079.0
32.21070 1043.0
32.21870 1024.0
32.22670 1122.0
32.23470 1153.0
32.24270 1023.0
32.25070 1153.0
32.25870 1195.0
32.26670 1266.0
32.27470 1407.0
32.28270 1666.0
32.29070 1919.0
32.29870 2175.0
32.30670 2146.0
32.31470 2006.0
32.32270 1777.0
32.33070 1575.0
32.33870 1402.0
32.34670 1364.0
32.35470 1346.0
32.36270 1315.0
32.37070 1293.0
32.37870 1261.0
32.38670 1204.0
32.39470 1129.0
32.40270 958.0
32.41070 976.0
32.41870 1038.0
32.42670 985.0
32.43470 962.0
32.44270 951.0
32.45070 881.0
32.45870 846.0
32.46670 824.0
32.47470 734.0
32.48270 692.0
32.49070 660.0
32.49870 678.0
32.50670 632.0
32.51470 628.0
32.52270 611.0
32.53070 630.0
32.53870 659.0
32.54670 681.0
32.55470 695.0
32.56270 683.0
32.57070 730.0
32.57870 724.0
32.58670 779.0
32.59470 709.0
32.60270 683.0
32.61070 648.0
32.61870 590.0
32.62670 584.0
32.63470 529.0
32.64270 581.0
32.65070 555.0
32.65870 530.0
32.66670 494.0
32.67470 491.0
32.68270 501.0
32.69070 456.0
32.69870 493.0
32.70670 484.0
32.71470 455.0
32.72270 453.0
32.73070 404.0
32.73870 402.0
32.74670 419.0
32.75470 395.0
32.76270 410.0
32.77070 413.0
32.77870 408.0
32.78670 391.0
32.79470 351.0
32.80270 398.0
32.81070 384.0
32.81870 382.0
32.82670 381.0
32.83470 349.0
32.84270 357.0
32.85070 341.0
32.85870 387.0
32.86670 347.0
32.87470 346.0
32.88270 330.0
32.89070 338.0
32.89870 324.0
32.90670 305.0
32.91470 292.0
32.92270 287.0
32.93070 280.0
32.93870 282.0
32.94670 259.0
32.95470 280.0
32.96270 276.0
32.97070 300.0
32.97870 255.0
32.98670 249.0
32.99470 263.0
33.00270 229.0
33.01070 237.0
33.01870 250.0
33.02670 254.0
33.03470 236.0
33.04270 244.0
33.05070 235.0
33.05870 253.0
33.06670 240.0
33.07470 260.0
33.08270 256.0
33.09070 216.0
33.09870 241.0
33.10670 219.0
33.11470 243.0
33.12270 227.0
33.13070 249.0
33.13870 248.0
33.14670 212.0
33.15470 210.0
33.16270 226.0
33.17070 233.0
33.17870 244.0
33.18670 234.0
33.19470 211.0
33.20270 230.0
33.21070 198.0
33.21870 211.0
33.22670 185.0
33.23470 183.0
33.24270 226.0
33.25070 243.0
33.25870 196.0
33.26670 215.0
33.27470 184.0
33.28270 221.0
33.29070 220.0
33.29870 209.0