Folder: DataAnalysis/data/W6858m/XRD_2ThetaOmega

Note: data/W6858m/XRD_2ThetaOmega/W6858m_peaks.TXT
No.	Label	Pos. [°2Th.]	FWHM Left [°2Th.]	Area [cts*°2Th.]	Backgr.[cts]	d-spacing [Å]	Height [cts]	Shape Left	Status	Integral Breadth [°2Th.]	FWHM Right [°2Th.]	Shape Right	Obs. Lorentz B [°2Th.]	Obs. Gauss B [°2Th.]	Instr. Lorentz B [°2Th.]	Instr. Gauss B [°2Th.]	Crystallite Size [Å]	Micro Strain [%]	Crystallite Size only [Å]	Micro Strain only [%]
1	Cr2O3 3 0 0	64,779(2)	0,344(6)	96,01	12,12	1,43800	207(3)	0,66(4)	Included	0,464792	 	 	0,323231	0,227331	0,077407	0,065578	425,232000	0,149717	262,436900	0,273971
2	Al2O3 3 0 0	68,16490(4)	0,06062(8)	2645,87	51,69	1,37459	34411(88)	0,499(2)	Included	0,076890	 	 	0,041398	0,047636	0,078471	0,066479	-2874,732000	-0,029904	33698,560000	0,002040

Note: README.md
# Methods
## RSM analysis

Check out [doc](documentation/RSM.md)

File: W6858m_absolute_2th-om_10-130deg_PIXscan_17min_9.xy
10.0035 17.0
10.4072 20.0
10.811 19.0
11.2147 20.0
11.6185 18.0
12.0222 18.0
12.426 19.0
12.8298 13.0
13.2335 17.0
13.6373 24.0
14.041 16.0
14.4448 19.0
14.8485 20.0
15.2523 19.0
15.656 13.0
16.0598 11.0
16.4636 8.0
16.8673 14.0
17.2711 14.0
17.6748 11.0
18.0786 17.0
18.4823 16.0
18.8861 14.0
19.2899 11.0
19.6936 16.0
20.0974 11.0
20.5011 8.0
20.9049 10.0
21.3086 13.0
21.7124 20.0
22.1161 11.0
22.5199 14.0
22.9237 16.0
23.3274 16.0
23.7312 10.0
24.1349 12.0
24.5387 14.0
24.9424 5.0
25.3462 13.0
25.75 12.0
26.1537 19.0
26.5575 10.0
26.9612 10.0
27.365 8.0
27.7687 12.0
28.1725 15.0
28.5762 11.0
28.98 11.0
29.3838 16.0
29.7875 12.0
30.1913 13.0
30.595 12.0
30.9988 15.0
31.4025 13.0
31.8063 11.0
32.2101 14.0
32.6138 16.0
33.0176 17.0
33.4213 14.0
33.8251 9.0
34.2288 11.0
34.6326 12.0
35.0363 9.0
35.4401 13.0
35.8439 8.0
36.2476 8.0
36.6514 14.0
37.0551 8.0
37.4589 11.0
37.8626 13.0
38.2664 16.0
38.6702 15.0
39.0739 8.0
39.4777 11.0
39.8814 8.0
40.2852 17.0
40.6889 10.0
41.0927 17.0
41.4964 19.0
41.9002 12.0
42.304 8.0
42.7077 12.0
43.1115 8.0
43.5152 12.0
43.919 8.0
44.3227 27.0
44.7265 15.0
45.1303 15.0
45.534 15.0
45.9378 9.0
46.3415 7.0
46.7453 9.0
47.149 17.0
47.5528 9.0
47.9565 13.0
48.3603 8.0
48.7641 13.0
49.1678 8.0
49.5716 9.0
49.9753 8.0
50.3791 8.0
50.7828 6.0
51.1866 13.0
51.5903 10.0
51.9941 15.0
52.3979 8.0
52.8016 8.0
53.2054 6.0
53.6091 14.0
54.0129 5.0
54.4166 12.0
54.8204 6.0
55.2242 11.0
55.6279 16.0
56.0317 16.0
56.4354 19.0
56.8392 18.0
57.2429 10.0
57.6467 9.0
58.0504 11.0
58.4542 15.0
58.858 19.0
59.2617 7.0
59.6655 11.0
60.0692 8.0
60.473 12.0
60.8767 78.0
61.2805 21.0
61.6843 12.0
62.088 9.0
62.4918 15.0
62.8955 9.0
63.2993 19.0
63.703 13.0
64.1068 29.0
64.5105 78.0
64.9143 300.0
65.3181 31.0
65.7218 14.0
66.1256 14.0
66.5293 28.0
66.9331 27.0
67.3368 54.0
67.7406 126.0
68.1444 27036.0
68.5481 394.0
68.9519 100.0
69.3556 62.0
69.7594 50.0
70.1631 37.0
70.5669 30.0
70.9706 22.0
71.3744 17.0
71.7782 10.0
72.1819 19.0
72.5857 17.0
72.9894 10.0
73.3932 14.0
73.7969 15.0
74.2007 20.0
74.6045 14.0
75.0082 14.0
75.412 14.0
75.8157 9.0
76.2195 10.0
76.6232 15.0
77.027 11.0
77.4307 14.0
77.8345 11.0
78.2383 14.0
78.642 12.0
79.0458 12.0
79.4495 13.0
79.8533 10.0
80.257 17.0
80.6608 15.0
81.0646 9.0
81.4683 12.0
81.8721 14.0
82.2758 10.0
82.6796 13.0
83.0833 12.0
83.4871 15.0
83.8908 10.0
84.2946 16.0
84.6984 16.0
85.1021 11.0
85.5059 5.0
85.9096 8.0
86.3134 11.0
86.7171 15.0
87.1209 13.0
87.5247 14.0
87.9284 11.0
88.3322 9.0
88.7359 12.0
89.1397 12.0
89.5434 9.0
89.9472 7.0
90.3509 16.0
90.7547 6.0
91.1585 11.0
91.5622 18.0
91.966 12.0
92.3697 13.0
92.7735 24.0
93.1772 13.0
93.581 13.0
93.9848 9.0
94.3885 12.0
94.7923 15.0
95.196 13.0
95.5998 12.0
96.0035 8.0
96.4073 10.0
96.811 6.0
97.2148 9.0
97.6186 8.0
98.0223 13.0
98.4261 19.0
98.8298 16.0
99.2336 12.0
99.6373 14.0
100.041 9.0
100.445 15.0
100.849 13.0
101.252 9.0
101.656 8.0
102.06 12.0
102.464 10.0
102.867 14.0
103.271 12.0
103.675 9.0
104.079 7.0
104.482 10.0
104.886 8.0
105.29 7.0
105.694 6.0
106.097 4.0
106.501 18.0
106.905 16.0
107.309 8.0
107.712 15.0
108.116 13.0
108.52 9.0
108.924 9.0
109.327 8.0
109.731 16.0
110.135 9.0
110.539 9.0
110.943 7.0
111.346 5.0
111.75 7.0
112.154 7.0
112.558 11.0
112.961 10.0
113.365 16.0
113.769 18.0
114.173 12.0
114.576 11.0
114.98 9.0
115.384 14.0
115.788 7.0
116.191 9.0
116.595 12.0
116.999 16.0
117.403 8.0
117.806 15.0
118.21 13.0
118.614 9.0
119.018 3.0
119.421 17.0
119.825 16.0
120.229 9.0
120.633 15.0
121.036 12.0
121.44 12.0
121.844 13.0
122.248 13.0
122.651 9.0
123.055 10.0
123.459 16.0
123.863 11.0
124.266 18.0
124.67 17.0
125.074 20.0
125.478 7.0
125.881 8.0
126.285 11.0
126.689 18.0
127.093 10.0
127.497 11.0
127.9 13.0
128.304 6.0
128.708 9.0
129.112 15.0
129.515 12.0
129.919 12.0
129.998 17.0