Folder: DataAnalysis/data/W6785c/XRD_2ThetaOmega

Note: data/W6785c/XRD_2ThetaOmega/W6785c_peaks.TXT
No.	Label	Pos. [°2Th.]	FWHM Left [°2Th.]	Area calc.	Assignment	h	k	l	Multiplicity	F obs.	F calc.	Area [cts*°2Th.]	Derivation	Backgr.[cts]	d-spacing [Å]	Height [cts]	K-A2 / K-A1 Ratio	Matched	Matched by	Rel. Int. [%]	Source	Status	Integral Breadth [°2Th.]
1	Cr2O3 0 0 6	38,9562(8)	0,245(4)	0,00	 	 	 	 	 	0,000000	0,000000	157,11	Pure KA1	3,87	2,31011	430(5)	0,500	False	 	5,80	Profile fitting	Included	0,365330
2	Al2O3 0 0 6	41,60810(8)	0,0523(2)	0,00	 	 	 	 	 	0,000000	0,000000	404,78	Pure KA1	19,60	2,16880	6682(27)	0,500	False	 	90,15	Profile fitting	Included	0,060581
3	Cr2O3 0 0 12	83,795(4)	0,66(2)	0,00	 	 	 	 	 	0,000000	0,000000	68,63	Pure KA1	8,82	1,15349	68(1)	0,500	False	 	0,92	Profile fitting	Included	1,002205
4	Al2O3 0 0 12	90,67272(9)	0,0709(3)	0,00	 	 	 	 	 	0,000000	0,000000	686,98	Pure KA1	19,21	1,08303	7412(26)	0,500	False	 	100,00	Profile fitting	Included	0,092690

Note: README.md
# Methods
## RSM analysis

Check out [doc](documentation/RSM.md)

File: W6785c_absolute_2th-om_10-130deg_PIXscan_17min_7.xy
10.0035 15.0
10.4072 25.0
10.811 14.0
11.2147 21.0
11.6185 34.0
12.0222 23.0
12.426 22.0
12.8298 19.0
13.2335 19.0
13.6373 20.0
14.041 17.0
14.4448 18.0
14.8485 21.0
15.2523 13.0
15.656 18.0
16.0598 32.0
16.4636 18.0
16.8673 12.0
17.2711 10.0
17.6748 18.0
18.0786 14.0
18.4823 16.0
18.8861 17.0
19.2899 16.0
19.6936 11.0
20.0974 14.0
20.5011 19.0
20.9049 17.0
21.3086 13.0
21.7124 21.0
22.1161 20.0
22.5199 13.0
22.9237 19.0
23.3274 9.0
23.7312 12.0
24.1349 12.0
24.5387 13.0
24.9424 13.0
25.3462 3.0
25.75 14.0
26.1537 6.0
26.5575 16.0
26.9612 14.0
27.365 16.0
27.7687 12.0
28.1725 9.0
28.5762 8.0
28.98 7.0
29.3838 12.0
29.7875 10.0
30.1913 14.0
30.595 14.0
30.9988 11.0
31.4025 13.0
31.8063 11.0
32.2101 9.0
32.6138 10.0
33.0176 11.0
33.4213 15.0
33.8251 12.0
34.2288 9.0
34.6326 14.0
35.0363 16.0
35.4401 13.0
35.8439 10.0
36.2476 15.0
36.6514 12.0
37.0551 12.0
37.4589 18.0
37.8626 17.0
38.2664 27.0
38.6702 75.0
39.0739 421.0
39.4777 28.0
39.8814 28.0
40.2852 15.0
40.6889 8.0
41.0927 20.0
41.4964 89.0
41.9002 53.0
42.304 32.0
42.7077 17.0
43.1115 20.0
43.5152 17.0
43.919 14.0
44.3227 28.0
44.7265 15.0
45.1303 4.0
45.534 9.0
45.9378 12.0
46.3415 11.0
46.7453 9.0
47.149 13.0
47.5528 11.0
47.9565 8.0
48.3603 9.0
48.7641 12.0
49.1678 13.0
49.5716 14.0
49.9753 9.0
50.3791 10.0
50.7828 7.0
51.1866 13.0
51.5903 16.0
51.9941 19.0
52.3979 9.0
52.8016 11.0
53.2054 15.0
53.6091 15.0
54.0129 12.0
54.4166 12.0
54.8204 10.0
55.2242 10.0
55.6279 13.0
56.0317 23.0
56.4354 16.0
56.8392 24.0
57.2429 15.0
57.6467 10.0
58.0504 9.0
58.4542 11.0
58.858 12.0
59.2617 4.0
59.6655 12.0
60.0692 12.0
60.473 11.0
60.8767 11.0
61.2805 9.0
61.6843 9.0
62.088 7.0
62.4918 3.0
62.8955 15.0
63.2993 12.0
63.703 13.0
64.1068 9.0
64.5105 18.0
64.9143 14.0
65.3181 10.0
65.7218 15.0
66.1256 10.0
66.5293 14.0
66.9331 9.0
67.3368 17.0
67.7406 8.0
68.1444 11.0
68.5481 9.0
68.9519 4.0
69.3556 7.0
69.7594 8.0
70.1631 8.0
70.5669 12.0
70.9706 12.0
71.3744 10.0
71.7782 12.0
72.1819 19.0
72.5857 14.0
72.9894 9.0
73.3932 8.0
73.7969 12.0
74.2007 12.0
74.6045 10.0
75.0082 11.0
75.412 5.0
75.8157 13.0
76.2195 10.0
76.6232 8.0
77.027 16.0
77.4307 16.0
77.8345 14.0
78.2383 10.0
78.642 9.0
79.0458 14.0
79.4495 18.0
79.8533 10.0
80.257 18.0
80.6608 13.0
81.0646 15.0
81.4683 12.0
81.8721 10.0
82.2758 8.0
82.6796 18.0
83.0833 29.0
83.4871 65.0
83.8908 112.0
84.2946 50.0
84.6984 25.0
85.1021 21.0
85.5059 15.0
85.9096 37.0
86.3134 21.0
86.7171 24.0
87.1209 13.0
87.5247 17.0
87.9284 15.0
88.3322 9.0
88.7359 22.0
89.1397 13.0
89.5434 12.0
89.9472 26.0
90.3509 52.0
90.7547 765.0
91.1585 87.0
91.5622 32.0
91.966 23.0
92.3697 22.0
92.7735 19.0
93.1772 16.0
93.581 15.0
93.9848 15.0
94.3885 18.0
94.7923 12.0
95.196 17.0
95.5998 16.0
96.0035 16.0
96.4073 12.0
96.811 8.0
97.2148 13.0
97.6186 10.0
98.0223 15.0
98.4261 15.0
98.8298 13.0
99.2336 6.0
99.6373 15.0
100.041 14.0
100.445 8.0
100.849 4.0
101.252 13.0
101.656 15.0
102.06 15.0
102.464 14.0
102.867 9.0
103.271 13.0
103.675 8.0
104.079 17.0
104.482 15.0
104.886 21.0
105.29 5.0
105.694 15.0
106.097 16.0
106.501 7.0
106.905 5.0
107.309 14.0
107.712 8.0
108.116 17.0
108.52 14.0
108.924 13.0
109.327 20.0
109.731 7.0
110.135 12.0
110.539 8.0
110.943 14.0
111.346 24.0
111.75 12.0
112.154 8.0
112.558 8.0
112.961 6.0
113.365 13.0
113.769 18.0
114.173 16.0
114.576 13.0
114.98 12.0
115.384 15.0
115.788 11.0
116.191 18.0
116.595 5.0
116.999 9.0
117.403 12.0
117.806 8.0
118.21 12.0
118.614 8.0
119.018 9.0
119.421 15.0
119.825 10.0
120.229 12.0
120.633 8.0
121.036 16.0
121.44 14.0
121.844 11.0
122.248 15.0
122.651 8.0
123.055 22.0
123.459 18.0
123.863 13.0
124.266 9.0
124.67 15.0
125.074 9.0
125.478 12.0
125.881 19.0
126.285 14.0
126.689 18.0
127.093 17.0
127.497 16.0
127.9 12.0
128.304 13.0
128.708 15.0
129.112 18.0
129.515 11.0
129.919 10.0
129.998 14.0