Folder: DataAnalysis/data/W6785c/XRD_Omega

Note: data/W6785c/XRD_Omega/W6785c_omega_peaks.TXT
No.	Label	Pos. [記mega]	FWHM Left [記mega]	Area [cts*記mega]	Backgr.[cts]	d-spacing [魔	Height [cts]	Shape Left	Status	Integral Breadth [記mega]	FWHM Right [記mega]	Shape Right	Obs. Lorentz B [記mega]	Obs. Gauss B [記mega]	Instr. Lorentz B [記mega]	Instr. Gauss B [記mega]	Crystallite Size [魔	Micro Strain [%]	Crystallite Size only [魔	Micro Strain only [%]
1	Cr2O3 0 0 6	19,49274(9)	0,1725(5)	3146,24	521,00	 	11613(21)	1,000(4)	Included	0,270930	 	 	0,269659	0,004575	0,075234	0,063732	460,653400	-0,161478	460,531600	0,494022

Note: README.md
# Methods
## RSM analysis

Check out [doc](documentation/RSM.md)

File: W6785c_Cr2O3_scan_omega_2deg_step_0.002deg0_14.xy
18.50810 538.0
18.51610 549.0
18.52410 537.0
18.53210 560.0
18.54010 577.0
18.54810 562.0
18.55610 567.0
18.56410 588.0
18.57210 603.0
18.58010 566.0
18.58810 588.0
18.59610 591.0
18.60410 581.0
18.61210 619.0
18.62010 599.0
18.62810 625.0
18.63610 585.0
18.64410 558.0
18.65210 615.0
18.66010 684.0
18.66810 611.0
18.67610 612.0
18.68410 623.0
18.69210 573.0
18.70010 654.0
18.70810 644.0
18.71610 633.0
18.72410 646.0
18.73210 606.0
18.74010 616.0
18.74810 644.0
18.75610 642.0
18.76410 658.0
18.77210 680.0
18.78010 690.0
18.78810 657.0
18.79610 683.0
18.80410 666.0
18.81210 668.0
18.82010 678.0
18.82810 677.0
18.83610 683.0
18.84410 706.0
18.85210 689.0
18.86010 729.0
18.86810 773.0
18.87610 738.0
18.88410 795.0
18.89210 835.0
18.90010 852.0
18.90810 802.0
18.91610 843.0
18.92410 874.0
18.93210 872.0
18.94010 908.0
18.94810 891.0
18.95610 906.0
18.96410 966.0
18.97210 964.0
18.98010 997.0
18.98810 959.0
18.99610 1060.0
19.00410 1019.0
19.01210 1071.0
19.02010 1054.0
19.02810 1142.0
19.03610 1132.0
19.04410 1136.0
19.05210 1223.0
19.06010 1208.0
19.06810 1219.0
19.07610 1281.0
19.08410 1203.0
19.09210 1374.0
19.10010 1298.0
19.10810 1420.0
19.11610 1469.0
19.12410 1471.0
19.13210 1523.0
19.14010 1536.0
19.14810 1582.0
19.15610 1656.0
19.16410 1661.0
19.17210 1729.0
19.18010 1747.0
19.18810 1814.0
19.19610 1883.0
19.20410 1985.0
19.21210 1988.0
19.22010 2059.0
19.22810 2145.0
19.23610 2246.0
19.24410 2272.0
19.25210 2477.0
19.26010 2575.0
19.26810 2642.0
19.27610 2865.0
19.28410 2853.0
19.29210 3025.0
19.30010 3207.0
19.30810 3362.0
19.31610 3530.0
19.32410 3680.0
19.33210 3788.0
19.34010 4047.0
19.34810 4359.0
19.35610 4689.0
19.36410 4845.0
19.37210 5225.0
19.38010 5642.0
19.38810 6209.0
19.39610 6733.0
19.40410 7242.0
19.41210 7982.0
19.42010 9001.0
19.42810 9896.0
19.43610 11169.0
19.44410 12246.0
19.45210 13449.0
19.46010 14353.0
19.46810 15632.0
19.47610 16627.0
19.48410 17038.0
19.49210 17139.0
19.50010 16999.0
19.50810 16796.0
19.51610 16715.0
19.52410 16090.0
19.53210 15499.0
19.54010 14958.0
19.54810 14150.0
19.55610 13072.0
19.56410 12015.0
19.57210 11169.0
19.58010 10593.0
19.58810 9942.0
19.59610 9328.0
19.60410 8600.0
19.61210 7922.0
19.62010 7296.0
19.62810 6852.0
19.63610 6255.0
19.64410 5913.0
19.65210 5623.0
19.66010 5164.0
19.66810 5100.0
19.67610 4608.0
19.68410 4320.0
19.69210 4015.0
19.70010 3785.0
19.70810 3610.0
19.71610 3377.0
19.72410 3289.0
19.73210 3070.0
19.74010 2852.0
19.74810 2762.0
19.75610 2538.0
19.76410 2523.0
19.77210 2351.0
19.78010 2339.0
19.78810 2138.0
19.79610 2065.0
19.80410 2029.0
19.81210 1891.0
19.82010 1926.0
19.82810 1832.0
19.83610 1628.0
19.84410 1590.0
19.85210 1534.0
19.86010 1435.0
19.86810 1467.0
19.87610 1340.0
19.88410 1386.0
19.89210 1333.0
19.90010 1315.0
19.90810 1243.0
19.91610 1200.0
19.92410 1179.0
19.93210 1163.0
19.94010 1109.0
19.94810 1035.0
19.95610 1077.0
19.96410 1033.0
19.97210 1054.0
19.98010 1023.0
19.98810 975.0
19.99610 956.0
20.00410 921.0
20.01210 926.0
20.02010 1006.0
20.02810 860.0
20.03610 839.0
20.04410 882.0
20.05210 838.0
20.06010 898.0
20.06810 847.0
20.07610 792.0
20.08410 792.0
20.09210 813.0
20.10010 807.0
20.10810 752.0
20.11610 764.0
20.12410 710.0
20.13210 750.0
20.14010 711.0
20.14810 679.0
20.15610 723.0
20.16410 662.0
20.17210 669.0
20.18010 664.0
20.18810 629.0
20.19610 635.0
20.20410 624.0
20.21210 676.0
20.22010 641.0
20.22810 618.0
20.23610 624.0
20.24410 602.0
20.25210 614.0
20.26010 642.0
20.26810 576.0
20.27610 624.0
20.28410 642.0
20.29210 614.0
20.30010 591.0
20.30810 534.0
20.31610 616.0
20.32410 609.0
20.33210 555.0
20.34010 576.0
20.34810 583.0
20.35610 516.0
20.36410 538.0
20.37210 540.0
20.38010 581.0
20.38810 599.0
20.39610 551.0
20.40410 525.0
20.41210 579.0
20.42010 585.0
20.42810 484.0
20.43610 538.0
20.44410 532.0
20.45210 510.0
20.46010 536.0
20.46810 511.0
20.47610 488.0
20.48410 542.0
20.49210 526.0