Folder: DataAnalysis/data/W6855m/XRD_Omega

Note: README.md
# Methods
## RSM analysis

Check out [doc](documentation/RSM.md)

File: W6855m_Cr2O3_scan_omega_2deg_step_0.002deg0_3.xy
31.91340 544.0
31.92140 531.0
31.92940 558.0
31.93740 575.0
31.94540 506.0
31.95340 563.0
31.96140 607.0
31.96940 560.0
31.97740 621.0
31.98540 620.0
31.99340 609.0
32.00140 676.0
32.00940 654.0
32.01740 643.0
32.02540 666.0
32.03340 652.0
32.04140 720.0
32.04940 672.0
32.05740 695.0
32.06540 696.0
32.07340 724.0
32.08140 703.0
32.08940 791.0
32.09740 765.0
32.10540 780.0
32.11340 801.0
32.12140 817.0
32.12940 796.0
32.13740 770.0
32.14540 860.0
32.15340 845.0
32.16140 901.0
32.16940 851.0
32.17740 868.0
32.18540 886.0
32.19340 940.0
32.20140 930.0
32.20940 958.0
32.21740 983.0
32.22540 1010.0
32.23340 1054.0
32.24140 994.0
32.24940 1059.0
32.25740 1033.0
32.26540 1153.0
32.27340 1099.0
32.28140 1124.0
32.28940 1187.0
32.29740 1129.0
32.30540 1195.0
32.31340 1210.0
32.32140 1215.0
32.32940 1249.0
32.33740 1337.0
32.34540 1310.0
32.35340 1349.0
32.36140 1387.0
32.36940 1413.0
32.37740 1399.0
32.38540 1512.0
32.39340 1539.0
32.40140 1541.0
32.40940 1474.0
32.41740 1488.0
32.42540 1545.0
32.43340 1619.0
32.44140 1623.0
32.44940 1589.0
32.45740 1660.0
32.46540 1709.0
32.47340 1784.0
32.48140 1715.0
32.48940 1752.0
32.49740 1813.0
32.50540 1916.0
32.51340 1875.0
32.52140 1975.0
32.52940 2018.0
32.53740 2028.0
32.54540 2058.0
32.55340 2136.0
32.56140 2154.0
32.56940 2278.0
32.57740 2389.0
32.58540 2593.0
32.59340 2968.0
32.60140 3239.0
32.60940 3426.0
32.61740 3660.0
32.62540 3326.0
32.63340 3171.0
32.64140 2951.0
32.64940 2988.0
32.65740 2954.0
32.66540 3015.0
32.67340 2960.0
32.68140 2860.0
32.68940 2987.0
32.69740 2878.0
32.70540 2822.0
32.71340 2795.0
32.72140 2837.0
32.72940 2819.0
32.73740 2911.0
32.74540 2883.0
32.75340 2934.0
32.76140 2886.0
32.76940 2812.0
32.77740 2806.0
32.78540 2769.0
32.79340 2733.0
32.80140 2721.0
32.80940 2866.0
32.81740 2744.0
32.82540 2799.0
32.83340 2669.0
32.84140 2830.0
32.84940 2829.0
32.85740 2901.0
32.86540 2856.0
32.87340 2859.0
32.88140 2930.0
32.88940 3001.0
32.89740 2942.0
32.90540 2923.0
32.91340 2944.0
32.92140 2919.0
32.92940 2868.0
32.93740 2814.0
32.94540 2789.0
32.95340 2857.0
32.96140 2789.0
32.96940 2705.0
32.97740 2709.0
32.98540 2790.0
32.99340 2769.0
33.00140 2738.0
33.00940 2600.0
33.01740 2567.0
33.02540 2596.0
33.03340 2657.0
33.04140 2605.0
33.04940 2552.0
33.05740 2547.0
33.06540 2505.0
33.07340 2414.0
33.08140 2470.0
33.08940 2396.0
33.09740 2346.0
33.10540 2389.0
33.11340 2338.0
33.12140 2281.0
33.12940 2296.0
33.13740 2169.0
33.14540 2266.0
33.15340 2135.0
33.16140 2134.0
33.16940 2133.0
33.17740 2033.0
33.18540 2070.0
33.19340 1918.0
33.20140 1958.0
33.20940 1893.0
33.21740 1828.0
33.22540 1849.0
33.23340 1749.0
33.24140 1688.0
33.24940 1705.0
33.25740 1705.0
33.26540 1568.0
33.27340 1576.0
33.28140 1591.0
33.28940 1555.0
33.29740 1502.0
33.30540 1516.0
33.31340 1375.0
33.32140 1344.0
33.32940 1423.0
33.33740 1298.0
33.34540 1274.0
33.35340 1292.0
33.36140 1240.0
33.36940 1243.0
33.37740 1249.0
33.38540 1191.0
33.39340 1194.0
33.40140 1125.0
33.40940 1082.0
33.41740 1040.0
33.42540 1038.0
33.43340 1021.0
33.44140 1008.0
33.44940 1031.0
33.45740 986.0
33.46540 998.0
33.47340 938.0
33.48140 897.0
33.48940 928.0
33.49740 855.0
33.50540 869.0
33.51340 822.0
33.52140 790.0
33.52940 785.0
33.53740 800.0
33.54540 751.0
33.55340 719.0
33.56140 698.0
33.56940 686.0
33.57740 730.0
33.58540 655.0
33.59340 726.0
33.60140 636.0
33.60940 615.0
33.61740 624.0
33.62540 619.0
33.63340 579.0
33.64140 586.0
33.64940 601.0
33.65740 563.0
33.66540 518.0
33.67340 545.0
33.68140 587.0
33.68940 553.0
33.69740 517.0
33.70540 526.0
33.71340 512.0
33.72140 501.0
33.72940 483.0
33.73740 452.0
33.74540 458.0
33.75340 428.0
33.76140 457.0
33.76940 461.0
33.77740 449.0
33.78540 478.0
33.79340 390.0
33.80140 477.0
33.80940 382.0
33.81740 399.0
33.82540 408.0
33.83340 372.0
33.84140 363.0
33.84940 413.0
33.85740 382.0
33.86540 369.0
33.87340 425.0
33.88140 323.0
33.88940 360.0
33.89740 367.0