Folder: DataAnalysis/data/W6857r/XRD_2ThetaOmega

Note: data/W6857r/XRD_2ThetaOmega/W6857r_peaks.TXT
No.	Label	Pos. [°2Th.]	FWHM Left [°2Th.]	Area [cts*°2Th.]	Backgr.[cts]	d-spacing [Å]	Height [cts]	Shape Left	Status	Integral Breadth [°2Th.]	FWHM Right [°2Th.]	Shape Right	Obs. Lorentz B [°2Th.]	Obs. Gauss B [°2Th.]	Instr. Lorentz B [°2Th.]	Instr. Gauss B [°2Th.]	Crystallite Size [Å]	Micro Strain [%]	Crystallite Size only [Å]	Micro Strain only [%]
1	Cr2O3 0 1 2	24(3)	1(4)	66,50	-25,40	3,64510	60(1060)	1(2)	Included	1,106975	 	 	1,101781	0,018695	0,074658	0,063245	87,924520	-0,121933	87,923690	2,072874
2	Al2O3 0 1 2	25,52937(4)	0,0489(1)	2436,32	86,48	3,48635	43621(71)	0,210(2)	Included	0,055852	 	 	0,013279	0,046936	0,074548	0,063152	-1477,219000	-0,081377	28617,480000	0,006091
3	Cr2O3 0 2 4	50(1)	1(8)	21,87	8,61	1,83428	12(204)	1(10)	Included	1,852999	 	 	1,341315	0,858372	0,074506	0,063120	76,776940	0,807219	53,661570	1,709117
4	Al2O3 0 2 4	52,50608(3)	0,0555(1)	2551,68	183,06	1,74143	38596(69)	0,329(3)	Included	0,066113	 	 	0,024162	0,049539	0,074847	0,063409	-1941,832000	-0,035016	31120,310000	0,002798
5	Al2O3 0 3 6	83,1802(2)	0,0674(7)	147,23	12,62	1,16044	1743(14)	0,47(1)	Included	0,084449	 	 	0,042691	0,054471	0,085591	0,072508	-2751,069000	-0,023528	37317,480000	0,001555
6	Al2O3 0 4 8	124,5896(1)	0,1050(3)	861,68	16,53	0,87005	6147(5)	0,628(7)	Included	0,140171	 	 	0,093083	0,072419	0,144553	0,122428	-3688,670000	-0,022618	60032,040000	0,000725

Note: README.md
# Methods
## RSM analysis

Check out [doc](documentation/RSM.md)

File: W6857r_(changed from a to r)_10-130deg.xy
10.0035 20.0
10.4072 24.0
10.811 15.0
11.2147 20.0
11.6185 23.0
12.0222 17.0
12.426 26.0
12.8298 31.0
13.2335 17.0
13.6373 14.0
14.041 23.0
14.4448 19.0
14.8485 15.0
15.2523 15.0
15.656 22.0
16.0598 22.0
16.4636 15.0
16.8673 15.0
17.2711 16.0
17.6748 19.0
18.0786 20.0
18.4823 14.0
18.8861 9.0
19.2899 15.0
19.6936 10.0
20.0974 11.0
20.5011 14.0
20.9049 12.0
21.3086 12.0
21.7124 18.0
22.1161 11.0
22.5199 15.0
22.9237 13.0
23.3274 21.0
23.7312 18.0
24.1349 54.0
24.5387 42.0
24.9424 46.0
25.3462 165.0
25.75 330.0
26.1537 96.0
26.5575 28.0
26.9612 19.0
27.365 17.0
27.7687 23.0
28.1725 18.0
28.5762 10.0
28.98 13.0
29.3838 18.0
29.7875 8.0
30.1913 12.0
30.595 12.0
30.9988 8.0
31.4025 12.0
31.8063 16.0
32.2101 13.0
32.6138 15.0
33.0176 14.0
33.4213 13.0
33.8251 5.0
34.2288 8.0
34.6326 6.0
35.0363 17.0
35.4401 16.0
35.8439 13.0
36.2476 8.0
36.6514 5.0
37.0551 14.0
37.4589 9.0
37.8626 10.0
38.2664 12.0
38.6702 11.0
39.0739 5.0
39.4777 9.0
39.8814 12.0
40.2852 11.0
40.6889 12.0
41.0927 9.0
41.4964 8.0
41.9002 7.0
42.304 16.0
42.7077 14.0
43.1115 10.0
43.5152 13.0
43.919 14.0
44.3227 15.0
44.7265 17.0
45.1303 10.0
45.534 9.0
45.9378 12.0
46.3415 13.0
46.7453 14.0
47.149 56.0
47.5528 20.0
47.9565 15.0
48.3603 14.0
48.7641 14.0
49.1678 29.0
49.5716 33.0
49.9753 25.0
50.3791 21.0
50.7828 29.0
51.1866 27.0
51.5903 32.0
51.9941 49.0
52.3979 759.0
52.8016 421.0
53.2054 106.0
53.6091 65.0
54.0129 35.0
54.4166 28.0
54.8204 14.0
55.2242 18.0
55.6279 14.0
56.0317 13.0
56.4354 17.0
56.8392 14.0
57.2429 15.0
57.6467 17.0
58.0504 18.0
58.4542 7.0
58.858 10.0
59.2617 19.0
59.6655 12.0
60.0692 11.0
60.473 8.0
60.8767 12.0
61.2805 15.0
61.6843 14.0
62.088 10.0
62.4918 15.0
62.8955 7.0
63.2993 19.0
63.703 14.0
64.1068 9.0
64.5105 12.0
64.9143 16.0
65.3181 13.0
65.7218 9.0
66.1256 12.0
66.5293 9.0
66.9331 8.0
67.3368 9.0
67.7406 13.0
68.1444 7.0
68.5481 11.0
68.9519 9.0
69.3556 10.0
69.7594 10.0
70.1631 10.0
70.5669 8.0
70.9706 7.0
71.3744 11.0
71.7782 8.0
72.1819 7.0
72.5857 10.0
72.9894 18.0
73.3932 13.0
73.7969 19.0
74.2007 12.0
74.6045 5.0
75.0082 12.0
75.412 15.0
75.8157 11.0
76.2195 11.0
76.6232 12.0
77.027 12.0
77.4307 17.0
77.8345 14.0
78.2383 8.0
78.642 19.0
79.0458 14.0
79.4495 7.0
79.8533 7.0
80.257 9.0
80.6608 10.0
81.0646 11.0
81.4683 5.0
81.8721 5.0
82.2758 16.0
82.6796 24.0
83.0833 93.0
83.4871 203.0
83.8908 22.0
84.2946 21.0
84.6984 15.0
85.1021 16.0
85.5059 16.0
85.9096 14.0
86.3134 10.0
86.7171 16.0
87.1209 14.0
87.5247 13.0
87.9284 15.0
88.3322 18.0
88.7359 10.0
89.1397 9.0
89.5434 11.0
89.9472 15.0
90.3509 13.0
90.7547 21.0
91.1585 12.0
91.5622 9.0
91.966 11.0
92.3697 6.0
92.7735 17.0
93.1772 10.0
93.581 11.0
93.9848 9.0
94.3885 12.0
94.7923 16.0
95.196 9.0
95.5998 8.0
96.0035 7.0
96.4073 15.0
96.811 13.0
97.2148 11.0
97.6186 18.0
98.0223 16.0
98.4261 12.0
98.8298 16.0
99.2336 9.0
99.6373 14.0
100.041 10.0
100.445 11.0
100.849 4.0
101.252 16.0
101.656 7.0
102.06 11.0
102.464 14.0
102.867 13.0
103.271 12.0
103.675 12.0
104.079 16.0
104.482 9.0
104.886 10.0
105.29 11.0
105.694 9.0
106.097 10.0
106.501 13.0
106.905 11.0
107.309 11.0
107.712 11.0
108.116 16.0
108.52 9.0
108.924 12.0
109.327 12.0
109.731 7.0
110.135 13.0
110.539 12.0
110.943 7.0
111.346 13.0
111.75 5.0
112.154 15.0
112.558 8.0
112.961 6.0
113.365 10.0
113.769 14.0
114.173 13.0
114.576 14.0
114.98 6.0
115.384 10.0
115.788 14.0
116.191 23.0
116.595 15.0
116.999 11.0
117.403 14.0
117.806 7.0
118.21 8.0
118.614 12.0
119.018 11.0
119.421 13.0
119.825 14.0
120.229 16.0
120.633 14.0
121.036 20.0
121.44 14.0
121.844 13.0
122.248 18.0
122.651 13.0
123.055 15.0
123.459 24.0
123.863 34.0
124.266 102.0
124.67 1651.0
125.074 1442.0
125.478 65.0
125.881 37.0
126.285 31.0
126.689 16.0
127.093 21.0
127.497 20.0
127.9 21.0
128.304 17.0
128.708 13.0
129.112 17.0
129.515 19.0
129.919 15.0
129.998 24.0