Folder: DataAnalysis/data/W6776r/XRD_Omega

Note: data/W6776r/XRD_Omega/W6776r_omega_peaks.TXT
No.	Label	Pos. [記mega]	FWHM Left [記mega]	Area [cts*記mega]	Backgr.[cts]	d-spacing [魔	Height [cts]	Shape Left	Status	Integral Breadth [記mega]	FWHM Right [記mega]	Shape Right	Obs. Lorentz B [記mega]	Obs. Gauss B [記mega]	Instr. Lorentz B [記mega]	Instr. Gauss B [記mega]	Crystallite Size [魔	Micro Strain [%]	Crystallite Size only [魔	Micro Strain only [%]
1	Cr2O3 0 2 4	24,6855(5)	0,689(1)	1526,71	39,10	 	1940(4)	0,209(3)	Included	0,786816	 	 	0,186089	0,661898	0,074629	0,063221	810,683900	1,313823	123,542300	1,458439

Note: README.md
# Methods
## RSM analysis

Check out [doc](documentation/RSM.md)

File: scan_omega_4deg_step_0.005deg0_2.xy
22.75560 43.0
22.77060 49.0
22.78560 45.0
22.80060 55.0
22.81560 39.0
22.83060 41.0
22.84560 44.0
22.86060 47.0
22.87560 55.0
22.89060 44.0
22.90560 55.0
22.92060 40.0
22.93560 58.0
22.95060 57.0
22.96560 53.0
22.98060 42.0
22.99560 53.0
23.01060 52.0
23.02560 40.0
23.04060 48.0
23.05560 72.0
23.07060 56.0
23.08560 56.0
23.10060 60.0
23.11560 52.0
23.13060 52.0
23.14560 55.0
23.16060 64.0
23.17560 68.0
23.19060 63.0
23.20560 75.0
23.22060 68.0
23.23560 79.0
23.25060 75.0
23.26560 77.0
23.28060 73.0
23.29560 83.0
23.31060 80.0
23.32560 89.0
23.34060 79.0
23.35560 83.0
23.37060 74.0
23.38560 78.0
23.40060 85.0
23.41560 93.0
23.43060 100.0
23.44560 95.0
23.46060 95.0
23.47560 95.0
23.49060 103.0
23.50560 106.0
23.52060 100.0
23.53560 109.0
23.55060 122.0
23.56560 135.0
23.58060 123.0
23.59560 136.0
23.61060 146.0
23.62560 138.0
23.64060 148.0
23.65560 164.0
23.67060 152.0
23.68560 165.0
23.70060 188.0
23.71560 175.0
23.73060 164.0
23.74560 176.0
23.76060 207.0
23.77560 212.0
23.79060 191.0
23.80560 235.0
23.82060 240.0
23.83560 220.0
23.85060 242.0
23.86560 241.0
23.88060 278.0
23.89560 277.0
23.91060 288.0
23.92560 288.0
23.94060 336.0
23.95560 342.0
23.97060 338.0
23.98560 375.0
24.00060 355.0
24.01560 372.0
24.03060 437.0
24.04560 452.0
24.06060 463.0
24.07560 467.0
24.09060 500.0
24.10560 571.0
24.12060 530.0
24.13560 616.0
24.15060 649.0
24.16560 711.0
24.18060 708.0
24.19560 817.0
24.21060 777.0
24.22560 836.0
24.24060 896.0
24.25560 876.0
24.27060 1004.0
24.28560 953.0
24.30060 1081.0
24.31560 1129.0
24.33060 1187.0
24.34560 1299.0
24.36060 1313.0
24.37560 1465.0
24.39060 1494.0
24.40560 1553.0
24.42060 1646.0
24.43560 1785.0
24.45060 1751.0
24.46560 1938.0
24.48060 1899.0
24.49560 2035.0
24.51060 2125.0
24.52560 2319.0
24.54060 2432.0
24.55560 2486.0
24.57060 2546.0
24.58560 2583.0
24.60060 2739.0
24.61560 2763.0
24.63060 2888.0
24.64560 2813.0
24.66060 2942.0
24.67560 2979.0
24.69060 2965.0
24.70560 3097.0
24.72060 3076.0
24.73560 3151.0
24.75060 3062.0
24.76560 3143.0
24.78060 3246.0
24.79560 3053.0
24.81060 2993.0
24.82560 2937.0
24.84060 2861.0
24.85560 2798.0
24.87060 2778.0
24.88560 2605.0
24.90060 2617.0
24.91560 2498.0
24.93060 2335.0
24.94560 2158.0
24.96060 2079.0
24.97560 1976.0
24.99060 1928.0
25.00560 1766.0
25.02060 1722.0
25.03560 1564.0
25.05060 1499.0
25.06560 1430.0
25.08060 1360.0
25.09560 1197.0
25.11060 1142.0
25.12560 1020.0
25.14060 919.0
25.15560 899.0
25.17060 808.0
25.18560 779.0
25.20060 707.0
25.21560 652.0
25.23060 585.0
25.24560 583.0
25.26060 546.0
25.27560 463.0
25.29060 424.0
25.30560 448.0
25.32060 359.0
25.33560 359.0
25.35060 313.0
25.36560 322.0
25.38060 284.0
25.39560 281.0
25.41060 283.0
25.42560 249.0
25.44060 199.0
25.45560 209.0
25.47060 210.0
25.48560 196.0
25.50060 186.0
25.51560 169.0
25.53060 165.0
25.54560 172.0
25.56060 135.0
25.57560 122.0
25.59060 145.0
25.60560 132.0
25.62060 109.0
25.63560 111.0
25.65060 95.0
25.66560 95.0
25.68060 76.0
25.69560 85.0
25.71060 94.0
25.72560 85.0
25.74060 83.0
25.75560 79.0
25.77060 87.0
25.78560 71.0
25.80060 68.0
25.81560 67.0
25.83060 66.0
25.84560 53.0
25.86060 64.0
25.87560 55.0
25.89060 59.0
25.90560 73.0
25.92060 54.0
25.93560 55.0
25.95060 52.0
25.96560 55.0
25.98060 46.0
25.99560 50.0
26.01060 45.0
26.02560 42.0
26.04060 42.0
26.05560 42.0
26.07060 39.0
26.08560 39.0
26.10060 57.0
26.11560 43.0
26.13060 29.0
26.14560 38.0
26.16060 37.0
26.17560 37.0
26.19060 31.0
26.20560 35.0
26.22060 46.0
26.23560 43.0
26.25060 29.0
26.26560 44.0
26.28060 39.0
26.29560 40.0
26.31060 30.0
26.32560 32.0
26.34060 44.0
26.35560 37.0
26.37060 34.0
26.38560 30.0
26.40060 25.0
26.41560 33.0
26.43060 30.0
26.44560 28.0
26.46060 34.0
26.47560 30.0
26.49060 24.0
26.50560 36.0
26.52060 20.0
26.53560 32.0
26.55060 19.0
26.56560 30.0
26.58060 38.0
26.59560 27.0
26.61060 26.0
26.62560 36.0
26.64060 28.0
26.65560 28.0
26.67060 34.0
26.68560 41.0
26.70060 36.0
26.71560 35.0