Folder: DataAnalysis/data/W6776r/XRD_2ThetaOmega

Note: data/W6776r/XRD_2ThetaOmega/W6776r_peaks.TXT
No.	Label	Pos. [°2Th.]	FWHM Left [°2Th.]	Area calc.	Assignment	h	k	l	Multiplicity	F obs.	F calc.	Area [cts*°2Th.]	Derivation	Backgr.[cts]	d-spacing [Å]	Height [cts]	K-A2 / K-A1 Ratio	Matched	Matched by	Rel. Int. [%]	Source	Status	Integral Breadth [°2Th.]
1	Cr2O3 0 1 2	24,3388(4)	0,127(2)	0,00	 	0	1	2	 	0,000000	0,000000	504,28	Pure KA1	-48,30	3,65412	2983(113)	0,500	False	 	6,01	Profile fitting	Included	0,169058
2	Al2O3 0 1 2	25,52785(4)	0,05167(9)	0,00	 	0	1	2	 	0,000000	0,000000	2730,15	Pure KA1	312,47	3,48655	49638(206)	0,500	False	 	100,00	Profile fitting	Included	0,055001
3	Cr2O3 0 2 4	49,944(2)	0,256(7)	0,00	 	0	2	4	 	0,000000	0,000000	397,72	Pure KA1	-164,95	1,82460	1106(86)	0,500	False	 	2,23	Profile fitting	Included	0,359625
4	Al2O3 0 2 4	52,50543(3)	0,05817(7)	0,00	 	0	2	4	 	0,000000	0,000000	2938,69	Pure KA1	384,15	1,74145	45103(40)	0,500	False	 	90,86	Profile fitting	Included	0,065156
5	Cr2O3 0 3 6	78,63(3)	0,4(2)	0,00	 	0	3	6	 	0,000000	0,000000	31,02	Pure KA1	7,21	1,21574	53(38)	0,500	False	 	0,11	Profile fitting	Included	0,585915
6	Al2O3 0 3 6	83,1798(2)	0,0689(5)	0,00	 	0	3	6	 	0,000000	0,000000	197,63	Pure KA1	17,57	1,16045	2304(12)	0,500	False	 	4,64	Profile fitting	Included	0,085762
7	Al2O3 0 4 8	124,5906(1)	0,1005(5)	0,00	 	0	4	8	 	0,000000	0,000000	1429,49	Pure KA1	-36,36	0,87004	9800(28)	0,500	False	 	19,74	Profile fitting	Included	0,145865

Note: README.md
# Methods
## RSM analysis

Check out [doc](documentation/RSM.md)

File: W6776r_absolute_2th-om_10-130deg_PIXscan_17min_10.xy
10.0035 27.0
10.4072 21.0
10.811 18.0
11.2147 16.0
11.6185 28.0
12.0222 19.0
12.426 19.0
12.8298 18.0
13.2335 23.0
13.6373 19.0
14.041 25.0
14.4448 16.0
14.8485 26.0
15.2523 20.0
15.656 22.0
16.0598 18.0
16.4636 18.0
16.8673 15.0
17.2711 16.0
17.6748 23.0
18.0786 20.0
18.4823 16.0
18.8861 10.0
19.2899 21.0
19.6936 9.0
20.0974 19.0
20.5011 18.0
20.9049 22.0
21.3086 17.0
21.7124 14.0
22.1161 19.0
22.5199 12.0
22.9237 23.0
23.3274 35.0
23.7312 39.0
24.1349 186.0
24.5387 349.0
24.9424 70.0
25.3462 284.0
25.75 354.0
26.1537 68.0
26.5575 33.0
26.9612 32.0
27.365 9.0
27.7687 18.0
28.1725 17.0
28.5762 15.0
28.98 12.0
29.3838 9.0
29.7875 17.0
30.1913 17.0
30.595 18.0
30.9988 12.0
31.4025 15.0
31.8063 19.0
32.2101 15.0
32.6138 12.0
33.0176 7.0
33.4213 19.0
33.8251 19.0
34.2288 19.0
34.6326 20.0
35.0363 10.0
35.4401 17.0
35.8439 14.0
36.2476 14.0
36.6514 13.0
37.0551 7.0
37.4589 11.0
37.8626 15.0
38.2664 12.0
38.6702 17.0
39.0739 14.0
39.4777 15.0
39.8814 5.0
40.2852 16.0
40.6889 12.0
41.0927 28.0
41.4964 20.0
41.9002 17.0
42.304 10.0
42.7077 19.0
43.1115 22.0
43.5152 10.0
43.919 17.0
44.3227 27.0
44.7265 17.0
45.1303 14.0
45.534 10.0
45.9378 11.0
46.3415 19.0
46.7453 25.0
47.149 77.0
47.5528 19.0
47.9565 11.0
48.3603 27.0
48.7641 23.0
49.1678 23.0
49.5716 66.0
49.9753 1229.0
50.3791 86.0
50.7828 38.0
51.1866 34.0
51.5903 55.0
51.9941 112.0
52.3979 1028.0
52.8016 500.0
53.2054 119.0
53.6091 53.0
54.0129 42.0
54.4166 26.0
54.8204 23.0
55.2242 13.0
55.6279 24.0
56.0317 15.0
56.4354 14.0
56.8392 13.0
57.2429 13.0
57.6467 11.0
58.0504 18.0
58.4542 9.0
58.858 22.0
59.2617 20.0
59.6655 12.0
60.0692 13.0
60.473 13.0
60.8767 16.0
61.2805 20.0
61.6843 15.0
62.088 7.0
62.4918 12.0
62.8955 16.0
63.2993 17.0
63.703 12.0
64.1068 12.0
64.5105 14.0
64.9143 14.0
65.3181 9.0
65.7218 11.0
66.1256 17.0
66.5293 16.0
66.9331 8.0
67.3368 11.0
67.7406 9.0
68.1444 16.0
68.5481 20.0
68.9519 13.0
69.3556 11.0
69.7594 16.0
70.1631 9.0
70.5669 14.0
70.9706 13.0
71.3744 11.0
71.7782 20.0
72.1819 11.0
72.5857 9.0
72.9894 16.0
73.3932 9.0
73.7969 17.0
74.2007 15.0
74.6045 13.0
75.0082 10.0
75.412 16.0
75.8157 16.0
76.2195 12.0
76.6232 15.0
77.027 12.0
77.4307 16.0
77.8345 24.0
78.2383 19.0
78.642 69.0
79.0458 30.0
79.4495 12.0
79.8533 16.0
80.257 13.0
80.6608 13.0
81.0646 12.0
81.4683 18.0
81.8721 18.0
82.2758 22.0
82.6796 18.0
83.0833 120.0
83.4871 344.0
83.8908 23.0
84.2946 19.0
84.6984 23.0
85.1021 16.0
85.5059 20.0
85.9096 14.0
86.3134 17.0
86.7171 20.0
87.1209 20.0
87.5247 17.0
87.9284 18.0
88.3322 10.0
88.7359 16.0
89.1397 13.0
89.5434 22.0
89.9472 15.0
90.3509 9.0
90.7547 16.0
91.1585 11.0
91.5622 13.0
91.966 13.0
92.3697 13.0
92.7735 17.0
93.1772 15.0
93.581 13.0
93.9848 10.0
94.3885 15.0
94.7923 20.0
95.196 7.0
95.5998 23.0
96.0035 23.0
96.4073 15.0
96.811 17.0
97.2148 11.0
97.6186 13.0
98.0223 16.0
98.4261 13.0
98.8298 16.0
99.2336 20.0
99.6373 8.0
100.041 16.0
100.445 17.0
100.849 13.0
101.252 17.0
101.656 17.0
102.06 11.0
102.464 18.0
102.867 13.0
103.271 15.0
103.675 6.0
104.079 7.0
104.482 13.0
104.886 22.0
105.29 16.0
105.694 8.0
106.097 20.0
106.501 15.0
106.905 15.0
107.309 17.0
107.712 14.0
108.116 15.0
108.52 11.0
108.924 15.0
109.327 15.0
109.731 15.0
110.135 13.0
110.539 13.0
110.943 15.0
111.346 15.0
111.75 12.0
112.154 21.0
112.558 12.0
112.961 21.0
113.365 19.0
113.769 13.0
114.173 10.0
114.576 15.0
114.98 16.0
115.384 20.0
115.788 20.0
116.191 33.0
116.595 17.0
116.999 15.0
117.403 19.0
117.806 14.0
118.21 15.0
118.614 16.0
119.018 16.0
119.421 21.0
119.825 19.0
120.229 19.0
120.633 14.0
121.036 22.0
121.44 25.0
121.844 18.0
122.248 21.0
122.651 27.0
123.055 35.0
123.459 36.0
123.863 59.0
124.266 142.0
124.67 2612.0
125.074 2068.0
125.478 90.0
125.881 40.0
126.285 38.0
126.689 34.0
127.093 29.0
127.497 27.0
127.9 29.0
128.304 19.0
128.708 20.0
129.112 24.0
129.515 21.0
129.919 15.0
129.998 21.0