Folder: DataAnalysis/data/W6817c/XRD_Omega

Note: data/W6817c/XRD_Omega/W6817c_omega_peaks.TXT
No.	Label	Pos. [記mega]	FWHM Left [記mega]	Area [cts*記mega]	Backgr.[cts]	d-spacing [魔	Height [cts]	Shape Left	Status	Integral Breadth [記mega]	FWHM Right [記mega]	Shape Right	Obs. Lorentz B [記mega]	Obs. Gauss B [記mega]	Instr. Lorentz B [記mega]	Instr. Gauss B [記mega]	Crystallite Size [魔	Micro Strain [%]	Crystallite Size only [魔	Micro Strain only [%]
1	Cr2O3 0 0 6	19,5286(4)	0,212(2)	294,65	26,52	 	1044(7)	0,62(1)	Included	0,282196	 	 	0,185320	0,147584	0,075229	0,063728	813,578200	0,337517	423,261000	0,536547

Note: README.md
# Methods
## RSM analysis

Check out [doc](documentation/RSM.md)

File: scan_omega_4deg_step_0.005deg0_C4.xy
17.56090 38.0
17.57590 37.0
17.59090 36.0
17.60590 40.0
17.62090 40.0
17.63590 38.0
17.65090 34.0
17.66590 33.0
17.68090 35.0
17.69590 39.0
17.71090 37.0
17.72590 34.0
17.74090 33.0
17.75590 43.0
17.77090 28.0
17.78590 30.0
17.80090 38.0
17.81590 30.0
17.83090 28.0
17.84590 33.0
17.86090 33.0
17.87590 41.0
17.89090 42.0
17.90590 40.0
17.92090 38.0
17.93590 41.0
17.95090 35.0
17.96590 41.0
17.98090 28.0
17.99590 41.0
18.01090 38.0
18.02590 39.0
18.04090 35.0
18.05590 56.0
18.07090 38.0
18.08590 44.0
18.10090 39.0
18.11590 44.0
18.13090 32.0
18.14590 35.0
18.16090 45.0
18.17590 39.0
18.19090 34.0
18.20590 37.0
18.22090 40.0
18.23590 33.0
18.25090 37.0
18.26590 36.0
18.28090 30.0
18.29590 35.0
18.31090 41.0
18.32590 36.0
18.34090 38.0
18.35590 33.0
18.37090 33.0
18.38590 40.0
18.40090 36.0
18.41590 35.0
18.43090 33.0
18.44590 38.0
18.46090 39.0
18.47590 39.0
18.49090 52.0
18.50590 34.0
18.52090 44.0
18.53590 45.0
18.55090 44.0
18.56590 48.0
18.58090 42.0
18.59590 49.0
18.61090 45.0
18.62590 49.0
18.64090 44.0
18.65590 42.0
18.67090 35.0
18.68590 49.0
18.70090 41.0
18.71590 40.0
18.73090 45.0
18.74590 46.0
18.76090 48.0
18.77590 49.0
18.79090 41.0
18.80590 57.0
18.82090 59.0
18.83590 51.0
18.85090 48.0
18.86590 57.0
18.88090 47.0
18.89590 52.0
18.91090 46.0
18.92590 50.0
18.94090 53.0
18.95590 48.0
18.97090 40.0
18.98590 53.0
19.00090 70.0
19.01590 50.0
19.03090 66.0
19.04590 56.0
19.06090 60.0
19.07590 92.0
19.09090 58.0
19.10590 70.0
19.12090 85.0
19.13590 68.0
19.15090 96.0
19.16590 69.0
19.18090 107.0
19.19590 96.0
19.21090 110.0
19.22590 120.0
19.24090 143.0
19.25590 156.0
19.27090 162.0
19.28590 186.0
19.30090 172.0
19.31590 230.0
19.33090 266.0
19.34590 309.0
19.36090 367.0
19.37590 369.0
19.39090 387.0
19.40590 537.0
19.42090 749.0
19.43590 897.0
19.45090 922.0
19.46590 1077.0
19.48090 1229.0
19.49590 1319.0
19.51090 1445.0
19.52590 1540.0
19.54090 1530.0
19.55590 1542.0
19.57090 1428.0
19.58590 1358.0
19.60090 1261.0
19.61590 1107.0
19.63090 898.0
19.64590 882.0
19.66090 775.0
19.67590 630.0
19.69090 470.0
19.70590 434.0
19.72090 339.0
19.73590 340.0
19.75090 293.0
19.76590 240.0
19.78090 198.0
19.79590 213.0
19.81090 178.0
19.82590 150.0
19.84090 140.0
19.85590 117.0
19.87090 107.0
19.88590 107.0
19.90090 104.0
19.91590 87.0
19.93090 75.0
19.94590 65.0
19.96090 69.0
19.97590 69.0
19.99090 60.0
20.00590 68.0
20.02090 58.0
20.03590 64.0
20.05090 59.0
20.06590 60.0
20.08090 58.0
20.09590 42.0
20.11090 40.0
20.12590 54.0
20.14090 51.0
20.15590 61.0
20.17090 55.0
20.18590 66.0
20.20090 42.0
20.21590 51.0
20.23090 44.0
20.24590 42.0
20.26090 45.0
20.27590 37.0
20.29090 41.0
20.30590 38.0
20.32090 36.0
20.33590 34.0
20.35090 39.0
20.36590 37.0
20.38090 43.0
20.39590 37.0
20.41090 42.0
20.42590 28.0
20.44090 40.0
20.45590 38.0
20.47090 38.0
20.48590 33.0
20.50090 28.0
20.51590 37.0
20.53090 33.0
20.54590 40.0
20.56090 30.0
20.57590 41.0
20.59090 37.0
20.60590 29.0
20.62090 36.0
20.63590 33.0
20.65090 33.0
20.66590 35.0
20.68090 46.0
20.69590 39.0
20.71090 32.0
20.72590 41.0
20.74090 28.0
20.75590 43.0
20.77090 32.0
20.78590 33.0
20.80090 32.0
20.81590 34.0
20.83090 34.0
20.84590 30.0
20.86090 39.0
20.87590 36.0
20.89090 37.0
20.90590 38.0
20.92090 34.0
20.93590 42.0
20.95090 28.0
20.96590 41.0
20.98090 33.0
20.99590 40.0
21.01090 47.0
21.02590 29.0
21.04090 28.0
21.05590 37.0
21.07090 34.0
21.08590 43.0
21.10090 33.0
21.11590 38.0
21.13090 39.0
21.14590 37.0
21.16090 29.0
21.17590 28.0
21.19090 37.0
21.20590 35.0
21.22090 30.0
21.23590 41.0
21.25090 26.0
21.26590 37.0
21.28090 38.0
21.29590 32.0
21.31090 32.0
21.32590 40.0
21.34090 31.0
21.35590 34.0
21.37090 37.0
21.38590 27.0
21.40090 41.0
21.41590 38.0
21.43090 25.0
21.44590 27.0
21.46090 38.0
21.47590 27.0
21.49090 34.0
21.50590 39.0
21.52090 30.0