Folder: DataAnalysis/data/W6817c/XRD_2ThetaOmega

Note: data/W6817c/XRD_2ThetaOmega/W6817c_peaks.TXT
No.	Label	Pos. [°2Th.]	FWHM Left [°2Th.]	Area calc.	Assignment	h	k	l	Multiplicity	F obs.	F calc.	Area [cts*°2Th.]	Derivation	Backgr.[cts]	d-spacing [Å]	Height [cts]	K-A2 / K-A1 Ratio	Matched	Matched by	Rel. Int. [%]	Source	Status	Integral Breadth [°2Th.]
1	Cr2O3 0 0 6	39,010(2)	0,272(9)	0,00	 	 	 	 	 	0,000000	0,000000	67,78	Pure KA1	10,83	2,30706	159(3)	0,500	False	 	2,13	Profile fitting	Included	0,426701
2	Al2O3 0 0 6	41,61442(8)	0,0513(2)	0,00	 	 	 	 	 	0,000000	0,000000	411,51	Pure KA1	15,78	2,16848	6850(28)	0,500	False	 	91,88	Profile fitting	Included	0,060074
3	Cr2O3 0 0 12	84,027(8)	0,60(3)	0,00	 	 	 	 	 	0,000000	0,000000	15,57	Pure KA1	17,54	1,15089	23(1)	0,500	False	 	0,31	Profile fitting	Included	0,678870
4	Al2O3 0 0 12	90,67722(9)	0,0709(3)	0,00	 	 	 	 	 	0,000000	0,000000	688,53	Pure KA1	21,68	1,08299	7456(27)	0,500	False	 	100,00	Profile fitting	Included	0,092350

Note: README.md
# Methods
## RSM analysis

Check out [doc](documentation/RSM.md)

File: W6817c_absolute_2th-om_10-130deg_PIXscan_17min_10.xy
10.0035 18.0
10.4072 19.0
10.811 22.0
11.2147 19.0
11.6185 24.0
12.0222 27.0
12.426 8.0
12.8298 24.0
13.2335 9.0
13.6373 16.0
14.041 11.0
14.4448 19.0
14.8485 19.0
15.2523 17.0
15.656 13.0
16.0598 11.0
16.4636 18.0
16.8673 21.0
17.2711 16.0
17.6748 13.0
18.0786 20.0
18.4823 18.0
18.8861 19.0
19.2899 11.0
19.6936 15.0
20.0974 15.0
20.5011 19.0
20.9049 19.0
21.3086 14.0
21.7124 20.0
22.1161 17.0
22.5199 16.0
22.9237 17.0
23.3274 20.0
23.7312 14.0
24.1349 11.0
24.5387 18.0
24.9424 14.0
25.3462 8.0
25.75 11.0
26.1537 10.0
26.5575 14.0
26.9612 14.0
27.365 13.0
27.7687 10.0
28.1725 16.0
28.5762 10.0
28.98 12.0
29.3838 17.0
29.7875 15.0
30.1913 11.0
30.595 12.0
30.9988 14.0
31.4025 13.0
31.8063 8.0
32.2101 17.0
32.6138 13.0
33.0176 11.0
33.4213 17.0
33.8251 8.0
34.2288 14.0
34.6326 15.0
35.0363 11.0
35.4401 19.0
35.8439 8.0
36.2476 8.0
36.6514 8.0
37.0551 10.0
37.4589 17.0
37.8626 26.0
38.2664 26.0
38.6702 48.0
39.0739 258.0
39.4777 22.0
39.8814 20.0
40.2852 14.0
40.6889 20.0
41.0927 24.0
41.4964 87.0
41.9002 58.0
42.304 19.0
42.7077 17.0
43.1115 16.0
43.5152 9.0
43.919 9.0
44.3227 39.0
44.7265 16.0
45.1303 14.0
45.534 9.0
45.9378 18.0
46.3415 12.0
46.7453 15.0
47.149 17.0
47.5528 15.0
47.9565 8.0
48.3603 20.0
48.7641 11.0
49.1678 13.0
49.5716 9.0
49.9753 6.0
50.3791 13.0
50.7828 11.0
51.1866 11.0
51.5903 18.0
51.9941 12.0
52.3979 12.0
52.8016 5.0
53.2054 14.0
53.6091 13.0
54.0129 13.0
54.4166 11.0
54.8204 12.0
55.2242 11.0
55.6279 16.0
56.0317 8.0
56.4354 14.0
56.8392 10.0
57.2429 9.0
57.6467 14.0
58.0504 10.0
58.4542 8.0
58.858 12.0
59.2617 13.0
59.6655 12.0
60.0692 8.0
60.473 14.0
60.8767 18.0
61.2805 13.0
61.6843 9.0
62.088 16.0
62.4918 9.0
62.8955 14.0
63.2993 10.0
63.703 12.0
64.1068 12.0
64.5105 18.0
64.9143 11.0
65.3181 12.0
65.7218 13.0
66.1256 9.0
66.5293 15.0
66.9331 7.0
67.3368 12.0
67.7406 6.0
68.1444 17.0
68.5481 12.0
68.9519 12.0
69.3556 17.0
69.7594 14.0
70.1631 8.0
70.5669 9.0
70.9706 8.0
71.3744 14.0
71.7782 17.0
72.1819 12.0
72.5857 15.0
72.9894 9.0
73.3932 15.0
73.7969 9.0
74.2007 13.0
74.6045 16.0
75.0082 18.0
75.412 10.0
75.8157 14.0
76.2195 9.0
76.6232 17.0
77.027 14.0
77.4307 14.0
77.8345 10.0
78.2383 9.0
78.642 10.0
79.0458 11.0
79.4495 15.0
79.8533 12.0
80.257 11.0
80.6608 4.0
81.0646 8.0
81.4683 18.0
81.8721 15.0
82.2758 11.0
82.6796 11.0
83.0833 17.0
83.4871 16.0
83.8908 28.0
84.2946 41.0
84.6984 21.0
85.1021 17.0
85.5059 10.0
85.9096 33.0
86.3134 10.0
86.7171 23.0
87.1209 16.0
87.5247 10.0
87.9284 16.0
88.3322 11.0
88.7359 13.0
89.1397 14.0
89.5434 17.0
89.9472 16.0
90.3509 66.0
90.7547 875.0
91.1585 99.0
91.5622 37.0
91.966 29.0
92.3697 21.0
92.7735 19.0
93.1772 22.0
93.581 12.0
93.9848 16.0
94.3885 13.0
94.7923 13.0
95.196 14.0
95.5998 10.0
96.0035 21.0
96.4073 21.0
96.811 4.0
97.2148 9.0
97.6186 14.0
98.0223 13.0
98.4261 15.0
98.8298 21.0
99.2336 10.0
99.6373 15.0
100.041 14.0
100.445 10.0
100.849 9.0
101.252 8.0
101.656 18.0
102.06 10.0
102.464 13.0
102.867 14.0
103.271 12.0
103.675 19.0
104.079 17.0
104.482 8.0
104.886 13.0
105.29 13.0
105.694 22.0
106.097 15.0
106.501 13.0
106.905 21.0
107.309 9.0
107.712 17.0
108.116 13.0
108.52 11.0
108.924 16.0
109.327 14.0
109.731 7.0
110.135 14.0
110.539 20.0
110.943 10.0
111.346 19.0
111.75 20.0
112.154 22.0
112.558 13.0
112.961 14.0
113.365 16.0
113.769 9.0
114.173 18.0
114.576 14.0
114.98 20.0
115.384 13.0
115.788 17.0
116.191 14.0
116.595 11.0
116.999 8.0
117.403 15.0
117.806 17.0
118.21 12.0
118.614 9.0
119.018 13.0
119.421 14.0
119.825 13.0
120.229 14.0
120.633 19.0
121.036 17.0
121.44 18.0
121.844 13.0
122.248 11.0
122.651 21.0
123.055 18.0
123.459 17.0
123.863 19.0
124.266 14.0
124.67 17.0
125.074 7.0
125.478 14.0
125.881 11.0
126.285 16.0
126.689 10.0
127.093 13.0
127.497 7.0
127.9 12.0
128.304 15.0
128.708 16.0
129.112 20.0
129.515 13.0
129.919 12.0
129.998 23.0