Folder: DataAnalysis/data/W6933m/XRD_2ThetaOmega

Note: data/W6933m/XRD_2ThetaOmega/W6933m_peaks.TXT
No.	Label	Pos. [°2Th.]	FWHM Left [°2Th.]	Area [cts*°2Th.]	Backgr.[cts]	d-spacing [Å]	Height [cts]	Shape Left	Status	Integral Breadth [°2Th.]	FWHM Right [°2Th.]	Shape Right	Obs. Lorentz B [°2Th.]	Obs. Gauss B [°2Th.]	Instr. Lorentz B [°2Th.]	Instr. Gauss B [°2Th.]	Crystallite Size [Å]	Micro Strain [%]	Crystallite Size only [Å]	Micro Strain only [%]
1	Cr2O3 3 0 0	64,937(1)	0,299(4)	123,41	2,69	1,43488	350(5)	0,31(2)	Included	0,352798	 	 	0,120494	0,270452	0,077453	0,065617	2430,804000	0,179917	360,333500	0,199105
2	Al2O3 3 0 0	68,19306(5)	0,0462(2)	2525,24	3,86	1,37409	38773(114)	0,759(4)	Included	0,065129	 	 	0,051163	0,026263	0,078481	0,066487	-3902,015000	-0,039369	33704,160000	0,002038

Note: README.md
# Methods
## RSM analysis

Check out [doc](documentation/RSM.md)

File: m_scan_2th-om_10-130deg_PIXscan_17min.xy
10.0035 49.0
10.4072 59.0
10.811 48.0
11.2147 50.0
11.6185 51.0
12.0222 50.0
12.426 44.0
12.8298 27.0
13.2335 42.0
13.6373 31.0
14.041 34.0
14.4448 31.0
14.8485 49.0
15.2523 33.0
15.656 34.0
16.0598 27.0
16.4636 30.0
16.8673 23.0
17.2711 26.0
17.6748 36.0
18.0786 27.0
18.4823 27.0
18.8861 27.0
19.2899 31.0
19.6936 27.0
20.0974 34.0
20.5011 24.0
20.9049 32.0
21.3086 32.0
21.7124 24.0
22.1161 28.0
22.5199 33.0
22.9237 19.0
23.3274 16.0
23.7312 22.0
24.1349 17.0
24.5387 30.0
24.9424 31.0
25.3462 21.0
25.75 27.0
26.1537 28.0
26.5575 22.0
26.9612 21.0
27.365 26.0
27.7687 16.0
28.1725 28.0
28.5762 21.0
28.98 26.0
29.3838 18.0
29.7875 21.0
30.1913 19.0
30.595 19.0
30.9988 24.0
31.4025 26.0
31.8063 19.0
32.2101 17.0
32.6138 12.0
33.0176 17.0
33.4213 20.0
33.8251 18.0
34.2288 20.0
34.6326 26.0
35.0363 16.0
35.4401 25.0
35.8439 20.0
36.2476 28.0
36.6514 18.0
37.0551 22.0
37.4589 18.0
37.8626 16.0
38.2664 25.0
38.6702 19.0
39.0739 17.0
39.4777 19.0
39.8814 25.0
40.2852 16.0
40.6889 21.0
41.0927 24.0
41.4964 15.0
41.9002 15.0
42.304 26.0
42.7077 13.0
43.1115 18.0
43.5152 23.0
43.919 22.0
44.3227 32.0
44.7265 32.0
45.1303 23.0
45.534 23.0
45.9378 25.0
46.3415 26.0
46.7453 9.0
47.149 36.0
47.5528 26.0
47.9565 22.0
48.3603 22.0
48.7641 21.0
49.1678 18.0
49.5716 21.0
49.9753 29.0
50.3791 19.0
50.7828 22.0
51.1866 21.0
51.5903 17.0
51.9941 18.0
52.3979 18.0
52.8016 20.0
53.2054 34.0
53.6091 25.0
54.0129 22.0
54.4166 23.0
54.8204 22.0
55.2242 30.0
55.6279 26.0
56.0317 24.0
56.4354 24.0
56.8392 28.0
57.2429 23.0
57.6467 25.0
58.0504 26.0
58.4542 24.0
58.858 27.0
59.2617 25.0
59.6655 19.0
60.0692 24.0
60.473 28.0
60.8767 154.0
61.2805 34.0
61.6843 32.0
62.088 24.0
62.4918 20.0
62.8955 29.0
63.2993 27.0
63.703 29.0
64.1068 46.0
64.5105 118.0
64.9143 1580.0
65.3181 140.0
65.7218 53.0
66.1256 48.0
66.5293 76.0
66.9331 63.0
67.3368 97.0
67.7406 322.0
68.1444 55502.0
68.5481 640.0
68.9519 163.0
69.3556 88.0
69.7594 52.0
70.1631 34.0
70.5669 38.0
70.9706 33.0
71.3744 27.0
71.7782 28.0
72.1819 34.0
72.5857 28.0
72.9894 41.0
73.3932 24.0
73.7969 33.0
74.2007 42.0
74.6045 29.0
75.0082 27.0
75.412 21.0
75.8157 31.0
76.2195 25.0
76.6232 27.0
77.027 22.0
77.4307 26.0
77.8345 22.0
78.2383 28.0
78.642 22.0
79.0458 34.0
79.4495 31.0
79.8533 27.0
80.257 24.0
80.6608 31.0
81.0646 34.0
81.4683 26.0
81.8721 28.0
82.2758 31.0
82.6796 29.0
83.0833 24.0
83.4871 29.0
83.8908 22.0
84.2946 24.0
84.6984 23.0
85.1021 41.0
85.5059 28.0
85.9096 28.0
86.3134 33.0
86.7171 20.0
87.1209 23.0
87.5247 31.0
87.9284 22.0
88.3322 19.0
88.7359 34.0
89.1397 35.0
89.5434 29.0
89.9472 20.0
90.3509 32.0
90.7547 34.0
91.1585 28.0
91.5622 29.0
91.966 24.0
92.3697 26.0
92.7735 26.0
93.1772 20.0
93.581 37.0
93.9848 20.0
94.3885 27.0
94.7923 33.0
95.196 23.0
95.5998 25.0
96.0035 27.0
96.4073 30.0
96.811 29.0
97.2148 21.0
97.6186 30.0
98.0223 14.0
98.4261 20.0
98.8298 25.0
99.2336 23.0
99.6373 20.0
100.041 25.0
100.445 27.0
100.849 25.0
101.252 28.0
101.656 32.0
102.06 37.0
102.464 26.0
102.867 15.0
103.271 27.0
103.675 25.0
104.079 33.0
104.482 28.0
104.886 28.0
105.29 33.0
105.694 22.0
106.097 43.0
106.501 21.0
106.905 29.0
107.309 22.0
107.712 31.0
108.116 26.0
108.52 27.0
108.924 22.0
109.327 36.0
109.731 32.0
110.135 32.0
110.539 32.0
110.943 34.0
111.346 31.0
111.75 38.0
112.154 28.0
112.558 24.0
112.961 21.0
113.365 22.0
113.769 25.0
114.173 32.0
114.576 27.0
114.98 33.0
115.384 35.0
115.788 26.0
116.191 25.0
116.595 29.0
116.999 26.0
117.403 36.0
117.806 17.0
118.21 28.0
118.614 28.0
119.018 36.0
119.421 32.0
119.825 32.0
120.229 26.0
120.633 35.0
121.036 25.0
121.44 39.0
121.844 37.0
122.248 22.0
122.651 26.0
123.055 26.0
123.459 25.0
123.863 32.0
124.266 36.0
124.67 34.0
125.074 31.0
125.478 29.0
125.881 31.0
126.285 33.0
126.689 26.0
127.093 33.0
127.497 26.0
127.9 30.0
128.304 36.0
128.708 40.0
129.112 25.0
129.515 23.0
129.919 38.0
129.998 30.0

File: w6933m_2theta
55.01000 0.0
55.08000 0.0
55.15000 1.0
55.22000 2.0
55.29000 2.0
55.36000 0.0
55.43000 0.0
55.50000 1.0
55.57000 0.0
55.64000 2.0
55.71000 0.0
55.78000 1.0
55.85000 0.0
55.92000 2.0
55.99000 0.0
56.06000 0.0
56.13000 1.0
56.20000 2.0
56.27000 1.0
56.34000 2.0
56.41000 0.0
56.48000 0.0
56.55000 0.0
56.62000 0.0
56.69000 0.0
56.76000 1.0
56.83000 0.0
56.90000 0.0
56.97000 0.0
57.04000 0.0
57.11000 1.0
57.18000 1.0
57.25000 2.0
57.32000 0.0
57.39000 0.0
57.46000 1.0
57.53000 1.0
57.60000 0.0
57.67000 1.0
57.74000 0.0
57.81000 1.0
57.88000 1.0
57.95000 0.0
58.02000 0.0
58.09000 0.0
58.16000 0.0
58.23000 0.0
58.30000 0.0
58.37000 2.0
58.44000 0.0
58.51000 0.0
58.58000 0.0
58.65000 0.0
58.72000 1.0
58.79000 0.0
58.86000 0.0
58.93000 1.0
59.00000 1.0
59.07000 0.0
59.14000 2.0
59.21000 0.0
59.28000 0.0
59.35000 0.0
59.42000 0.0
59.49000 1.0
59.56000 1.0
59.63000 1.0
59.70000 0.0
59.77000 0.0
59.84000 1.0
59.91000 0.0
59.98000 0.0
60.05000 2.0
60.12000 2.0
60.19000 4.0
60.26000 0.0
60.33000 1.0
60.40000 3.0
60.47000 1.0
60.54000 0.0
60.61000 0.0
60.68000 2.0
60.75000 2.0
60.82000 3.0
60.89000 0.0
60.96000 1.0
61.03000 0.0
61.10000 0.0
61.17000 0.0
61.24000 2.0
61.31000 0.0
61.38000 0.0
61.45000 1.0
61.52000 2.0
61.59000 3.0
61.66000 1.0
61.73000 0.0
61.80000 0.0
61.87000 0.0
61.94000 1.0
62.01000 2.0
62.08000 2.0
62.15000 1.0
62.22000 0.0
62.29000 1.0
62.36000 1.0
62.43000 1.0
62.50000 1.0
62.57000 0.0
62.64000 0.0
62.71000 1.0
62.78000 1.0
62.85000 1.0
62.92000 2.0
62.99000 2.0
63.06000 1.0
63.13000 2.0
63.20000 2.0
63.27000 1.0
63.34000 1.0
63.41000 0.0
63.48000 0.0
63.55000 2.0
63.62000 4.0
63.69000 3.0
63.76000 3.0
63.83000 2.0
63.90000 5.0
63.97000 2.0
64.04000 6.0
64.11000 6.0
64.18000 3.0
64.25000 5.0
64.32000 10.0
64.39000 14.0
64.46000 22.0
64.53000 27.0
64.60000 44.0
64.67000 83.0
64.74000 106.0
64.81000 199.0
64.88000 339.0
64.95000 460.0
65.02000 382.0
65.09000 354.0
65.16000 277.0
65.23000 137.0
65.30000 71.0
65.37000 39.0
65.44000 26.0
65.51000 14.0
65.58000 13.0
65.65000 11.0
65.72000 6.0
65.79000 5.0
65.86000 9.0
65.93000 7.0
66.00000 4.0
66.07000 6.0
66.14000 6.0
66.21000 1.0
66.28000 8.0
66.35000 4.0
66.42000 5.0
66.49000 5.0
66.56000 5.0
66.63000 7.0
66.70000 3.0
66.77000 7.0
66.84000 8.0
66.91000 9.0
66.98000 7.0
67.05000 9.0
67.12000 11.0
67.19000 8.0
67.26000 15.0
67.33000 16.0
67.40000 28.0
67.47000 25.0
67.54000 34.0
67.61000 48.0
67.68000 62.0
67.75000 110.0
67.82000 184.0
67.89000 444.0
67.96000 470.0
68.03000 579.0
68.10000 1443.0
68.17000 20434.0
68.24000 6124.0
68.31000 1951.0
68.38000 18379.0
68.45000 2146.0
68.52000 562.0
68.59000 413.0
68.66000 231.0
68.73000 145.0
68.80000 119.0
68.87000 86.0
68.94000 76.0
69.01000 60.0
69.08000 52.0
69.15000 57.0
69.22000 47.0
69.29000 42.0
69.36000 37.0
69.43000 34.0
69.50000 36.0
69.57000 29.0
69.64000 22.0
69.71000 19.0
69.78000 23.0
69.85000 21.0
69.92000 21.0
69.99000 15.0
70.06000 13.0
70.13000 16.0
70.20000 13.0
70.27000 14.0
70.34000 17.0
70.41000 6.0
70.48000 11.0
70.55000 5.0
70.62000 7.0
70.69000 9.0
70.76000 1.0
70.83000 3.0
70.90000 8.0
70.97000 2.0
71.04000 7.0
71.11000 1.0
71.18000 5.0
71.25000 3.0
71.32000 1.0
71.39000 5.0
71.46000 2.0
71.53000 1.0
71.60000 2.0
71.67000 3.0
71.74000 5.0
71.81000 1.0
71.88000 2.0
71.95000 3.0
72.02000 2.0
72.09000 2.0
72.16000 3.0
72.23000 3.0
72.30000 1.0
72.37000 0.0
72.44000 2.0
72.51000 3.0
72.58000 3.0
72.65000 0.0
72.72000 1.0
72.79000 4.0
72.86000 1.0
72.93000 1.0
73.00000 0.0
73.07000 1.0
73.14000 1.0
73.21000 0.0
73.28000 1.0
73.35000 2.0
73.42000 1.0
73.49000 3.0
73.56000 0.0
73.63000 2.0
73.70000 0.0
73.77000 5.0
73.84000 0.0
73.91000 2.0
73.98000 1.0
74.05000 3.0
74.12000 3.0
74.19000 2.0
74.26000 1.0
74.33000 0.0
74.40000 2.0
74.47000 0.0
74.54000 2.0
74.61000 2.0
74.68000 0.0
74.75000 0.0
74.82000 1.0
74.89000 2.0
74.96000 1.0
74.99000 1.0