Folder: DataAnalysis/data/W6933m/XRD_Omega

Note: data/W6933m/XRD_Omega/W6933m_omega_peaks.TXT
No.	Label	Pos. [記mega]	FWHM Left [記mega]	Area [cts*記mega]	Backgr.[cts]	d-spacing [魔	Height [cts]	Shape Left	Status	Integral Breadth [記mega]	FWHM Right [記mega]	Shape Right	Obs. Lorentz B [記mega]	Obs. Gauss B [記mega]	Instr. Lorentz B [記mega]	Instr. Gauss B [記mega]	Crystallite Size [魔	Micro Strain [%]	Crystallite Size only [魔	Micro Strain only [%]
1	Cr2O3 3 0 0	31,9941(4)	0,6417(8)	2350,92	81,82	 	3310(5)	0,118(2)	Included	0,710152	 	 	0,097344	0,646575	0,074084	0,062760	3947,867000	0,979419	139,485500	1,001936

Note: README.md
# Methods
## RSM analysis

Check out [doc](documentation/RSM.md)

File: film_m_can_omega_4deg_step_0.005deg0.xy
30.00400 66.0
30.01900 68.0
30.03400 92.0
30.04900 71.0
30.06400 69.0
30.07900 70.0
30.09400 69.0
30.10900 91.0
30.12400 61.0
30.13900 79.0
30.15400 90.0
30.16900 71.0
30.18400 89.0
30.19900 80.0
30.21400 69.0
30.22900 63.0
30.24400 80.0
30.25900 82.0
30.27400 64.0
30.28900 74.0
30.30400 88.0
30.31900 91.0
30.33400 70.0
30.34900 63.0
30.36400 96.0
30.37900 61.0
30.39400 91.0
30.40900 64.0
30.42400 71.0
30.43900 81.0
30.45400 95.0
30.46900 80.0
30.48400 77.0
30.49900 74.0
30.51400 68.0
30.52900 82.0
30.54400 78.0
30.55900 81.0
30.57400 83.0
30.58900 76.0
30.60400 84.0
30.61900 78.0
30.63400 84.0
30.64900 100.0
30.66400 87.0
30.67900 101.0
30.69400 77.0
30.70900 69.0
30.72400 87.0
30.73900 86.0
30.75400 77.0
30.76900 101.0
30.78400 82.0
30.79900 106.0
30.81400 92.0
30.82900 97.0
30.84400 117.0
30.85900 100.0
30.87400 94.0
30.88900 101.0
30.90400 98.0
30.91900 116.0
30.93400 115.0
30.94900 119.0
30.96400 119.0
30.97900 125.0
30.99400 141.0
31.00900 132.0
31.02400 164.0
31.03900 149.0
31.05400 159.0
31.06900 131.0
31.08400 159.0
31.09900 151.0
31.11400 187.0
31.12900 173.0
31.14400 165.0
31.15900 188.0
31.17400 171.0
31.18900 192.0
31.20400 218.0
31.21900 237.0
31.23400 237.0
31.24900 240.0
31.26400 249.0
31.27900 282.0
31.29400 305.0
31.30900 293.0
31.32400 323.0
31.33900 372.0
31.35400 410.0
31.36900 409.0
31.38400 444.0
31.39900 478.0
31.41400 504.0
31.42900 655.0
31.44400 587.0
31.45900 705.0
31.47400 724.0
31.48900 811.0
31.50400 890.0
31.51900 935.0
31.53400 1055.0
31.54900 1133.0
31.56400 1300.0
31.57900 1357.0
31.59400 1458.0
31.60900 1586.0
31.62400 1746.0
31.63900 1873.0
31.65400 2061.0
31.66900 2206.0
31.68400 2358.0
31.69900 2597.0
31.71400 2756.0
31.72900 2961.0
31.74400 3241.0
31.75900 3326.0
31.77400 3580.0
31.78900 3750.0
31.80400 3693.0
31.81900 4053.0
31.83400 4327.0
31.84900 4386.0
31.86400 4611.0
31.87900 4622.0
31.89400 4725.0
31.90900 4858.0
31.92400 4940.0
31.93900 5051.0
31.95400 5060.0
31.96900 5007.0
31.98400 5158.0
31.99900 5131.0
32.01400 5160.0
32.02900 5135.0
32.04400 4972.0
32.05900 4891.0
32.07400 4907.0
32.08900 4796.0
32.10400 4700.0
32.11900 4681.0
32.13400 4470.0
32.14900 4378.0
32.16400 4306.0
32.17900 3998.0
32.19400 3820.0
32.20900 3772.0
32.22400 3596.0
32.23900 3337.0
32.25400 3243.0
32.26900 3078.0
32.28400 2949.0
32.29900 2818.0
32.31400 2497.0
32.32900 2569.0
32.34400 2417.0
32.35900 2295.0
32.37400 2073.0
32.38900 2075.0
32.40400 1895.0
32.41900 1847.0
32.43400 1703.0
32.44900 1589.0
32.46400 1492.0
32.47900 1343.0
32.49400 1329.0
32.50900 1160.0
32.52400 1114.0
32.53900 954.0
32.55400 866.0
32.56900 861.0
32.58400 784.0
32.59900 755.0
32.61400 631.0
32.62900 649.0
32.64400 576.0
32.65900 557.0
32.67400 490.0
32.68900 512.0
32.70400 450.0
32.71900 458.0
32.73400 435.0
32.74900 351.0
32.76400 373.0
32.77900 338.0
32.79400 313.0
32.80900 324.0
32.82400 265.0
32.83900 247.0
32.85400 259.0
32.86900 226.0
32.88400 229.0
32.89900 238.0
32.91400 261.0
32.92900 188.0
32.94400 201.0
32.95900 190.0
32.97400 140.0
32.98900 173.0
33.00400 167.0
33.01900 159.0
33.03400 157.0
33.04900 171.0
33.06400 139.0
33.07900 157.0
33.09400 105.0
33.10900 141.0
33.12400 134.0
33.13900 110.0
33.15400 116.0
33.16900 100.0
33.18400 125.0
33.19900 119.0
33.21400 119.0
33.22900 90.0
33.24400 97.0
33.25900 124.0
33.27400 103.0
33.28900 100.0
33.30400 111.0
33.31900 101.0
33.33400 102.0
33.34900 85.0
33.36400 95.0
33.37900 104.0
33.39400 98.0
33.40900 89.0
33.42400 89.0
33.43900 85.0
33.45400 93.0
33.46900 90.0
33.48400 75.0
33.49900 89.0
33.51400 73.0
33.52900 70.0
33.54400 79.0
33.55900 74.0
33.57400 80.0
33.58900 80.0
33.60400 73.0
33.61900 65.0
33.63400 76.0
33.64900 81.0
33.66400 63.0
33.67900 82.0
33.69400 88.0
33.70900 78.0
33.72400 66.0
33.73900 65.0
33.75400 78.0
33.76900 95.0
33.78400 96.0
33.79900 78.0
33.81400 69.0
33.82900 88.0
33.84400 92.0
33.85900 79.0
33.87400 77.0
33.88900 74.0
33.90400 62.0
33.91900 69.0
33.93400 65.0
33.94900 63.0
33.96400 67.0