Folder: DataAnalysis/data/W6911a/XRD_Omega

Note: data/W6911a/XRD_Omega/W6911a_omega_peaks.TXT
No.	Label	Pos. [記mega]	FWHM Left [記mega]	Area [cts*記mega]	Backgr.[cts]	d-spacing [魔	Height [cts]	Shape Left	Status	Integral Breadth [記mega]	FWHM Right [記mega]	Shape Right	Obs. Lorentz B [記mega]	Obs. Gauss B [記mega]	Instr. Lorentz B [記mega]	Instr. Gauss B [記mega]	Crystallite Size [魔	Micro Strain [%]	Crystallite Size only [魔	Micro Strain only [%]
1	Cr2O3 1 1 0	18,2761(5)	0,848(1)	2279,08	59,51	 	2313(4)	0,262(3)	Included	0,985494	 	 	0,289336	0,789280	0,075400	0,063872	417,903200	2,133956	96,317230	2,517887

Note: README.md
# Methods
## RSM analysis

Check out [doc](documentation/RSM.md)

File: w6911a_a-Cr2O3_scan_omega_4deg_step_0.005deg0_C1.xy
16.31380 61.0
16.32880 82.0
16.34380 58.0
16.35880 85.0
16.37380 71.0
16.38880 75.0
16.40380 71.0
16.41880 86.0
16.43380 67.0
16.44880 83.0
16.46380 83.0
16.47880 74.0
16.49380 78.0
16.50880 73.0
16.52380 95.0
16.53880 82.0
16.55380 93.0
16.56880 82.0
16.58380 89.0
16.59880 87.0
16.61380 94.0
16.62880 80.0
16.64380 90.0
16.65880 77.0
16.67380 98.0
16.68880 83.0
16.70380 87.0
16.71880 97.0
16.73380 95.0
16.74880 91.0
16.76380 96.0
16.77880 92.0
16.79380 107.0
16.80880 93.0
16.82380 86.0
16.83880 90.0
16.85380 120.0
16.86880 95.0
16.88380 136.0
16.89880 135.0
16.91380 130.0
16.92880 134.0
16.94380 135.0
16.95880 100.0
16.97380 138.0
16.98880 145.0
17.00380 147.0
17.01880 170.0
17.03380 152.0
17.04880 155.0
17.06380 136.0
17.07880 169.0
17.09380 165.0
17.10880 185.0
17.12380 169.0
17.13880 182.0
17.15380 208.0
17.16880 231.0
17.18380 212.0
17.19880 237.0
17.21380 241.0
17.22880 249.0
17.24380 250.0
17.25880 268.0
17.27380 241.0
17.28880 250.0
17.30380 298.0
17.31880 333.0
17.33380 320.0
17.34880 332.0
17.36380 330.0
17.37880 360.0
17.39380 370.0
17.40880 373.0
17.42380 408.0
17.43880 438.0
17.45380 455.0
17.46880 475.0
17.48380 500.0
17.49880 524.0
17.51380 533.0
17.52880 554.0
17.54380 573.0
17.55880 595.0
17.57380 646.0
17.58880 668.0
17.60380 727.0
17.61880 787.0
17.63380 800.0
17.64880 810.0
17.66380 861.0
17.67880 940.0
17.69380 891.0
17.70880 991.0
17.72380 1029.0
17.73880 1132.0
17.75380 1157.0
17.76880 1198.0
17.78380 1391.0
17.79880 1362.0
17.81380 1494.0
17.82880 1491.0
17.84380 1505.0
17.85880 1639.0
17.87380 1703.0
17.88880 1849.0
17.90380 1839.0
17.91880 1916.0
17.93380 1986.0
17.94880 2182.0
17.96380 2128.0
17.97880 2268.0
17.99380 2362.0
18.00880 2373.0
18.02380 2565.0
18.03880 2580.0
18.05380 2753.0
18.06880 2695.0
18.08380 2756.0
18.09880 2969.0
18.11380 2944.0
18.12880 3153.0
18.14380 3246.0
18.15880 3363.0
18.17380 3315.0
18.18880 3540.0
18.20380 3473.0
18.21880 3607.0
18.23380 3800.0
18.24880 3614.0
18.26380 3762.0
18.27880 3766.0
18.29380 3882.0
18.30880 3872.0
18.32380 3937.0
18.33880 3823.0
18.35380 3772.0
18.36880 3789.0
18.38380 3713.0
18.39880 3746.0
18.41380 3672.0
18.42880 3488.0
18.44380 3319.0
18.45880 3117.0
18.47380 3083.0
18.48880 2887.0
18.50380 2892.0
18.51880 2760.0
18.53380 2632.0
18.54880 2654.0
18.56380 2541.0
18.57880 2406.0
18.59380 2304.0
18.60880 2293.0
18.62380 2211.0
18.63880 2106.0
18.65380 2038.0
18.66880 1967.0
18.68380 1854.0
18.69880 1803.0
18.71380 1635.0
18.72880 1572.0
18.74380 1590.0
18.75880 1445.0
18.77380 1336.0
18.78880 1355.0
18.80380 1256.0
18.81880 1201.0
18.83380 1161.0
18.84880 1067.0
18.86380 1022.0
18.87880 1063.0
18.89380 935.0
18.90880 844.0
18.92380 839.0
18.93880 804.0
18.95380 773.0
18.96880 727.0
18.98380 683.0
18.99880 628.0
19.01380 678.0
19.02880 884.0
19.04380 627.0
19.05880 527.0
19.07380 506.0
19.08880 491.0
19.10380 436.0
19.11880 454.0
19.13380 452.0
19.14880 345.0
19.16380 395.0
19.17880 385.0
19.19380 364.0
19.20880 332.0
19.22380 300.0
19.23880 287.0
19.25380 245.0
19.26880 269.0
19.28380 251.0
19.29880 263.0
19.31380 245.0
19.32880 228.0
19.34380 238.0
19.35880 214.0
19.37380 219.0
19.38880 188.0
19.40380 182.0
19.41880 181.0
19.43380 156.0
19.44880 173.0
19.46380 153.0
19.47880 138.0
19.49380 168.0
19.50880 134.0
19.52380 143.0
19.53880 147.0
19.55380 139.0
19.56880 145.0
19.58380 121.0
19.59880 131.0
19.61380 120.0
19.62880 109.0
19.64380 124.0
19.65880 124.0
19.67380 114.0
19.68880 118.0
19.70380 99.0
19.71880 83.0
19.73380 106.0
19.74880 90.0
19.76380 104.0
19.77880 99.0
19.79380 96.0
19.80880 89.0
19.82380 71.0
19.83880 92.0
19.85380 87.0
19.86880 85.0
19.88380 68.0
19.89880 69.0
19.91380 74.0
19.92880 68.0
19.94380 72.0
19.95880 67.0
19.97380 88.0
19.98880 72.0
20.00380 76.0
20.01880 79.0
20.03380 83.0
20.04880 57.0
20.06380 80.0
20.07880 61.0
20.09380 82.0
20.10880 56.0
20.12380 66.0
20.13880 63.0
20.15380 53.0
20.16880 66.0
20.18380 76.0
20.19880 77.0
20.21380 58.0
20.22880 60.0
20.24380 55.0
20.25880 62.0
20.27380 58.0