Folder: DataAnalysis/data/W6911a/XRD_2ThetaOmega

Note: data/W6911a/XRD_2ThetaOmega/W6911a_peaks.TXT
No.	Label	Pos. [°2Th.]	FWHM Left [°2Th.]	Area [cts*°2Th.]	Backgr.[cts]	d-spacing [Å]	Height [cts]	Shape Left	Status	Integral Breadth [°2Th.]	FWHM Right [°2Th.]	Shape Right	Obs. Lorentz B [°2Th.]	Obs. Gauss B [°2Th.]	Instr. Lorentz B [°2Th.]	Instr. Gauss B [°2Th.]	Crystallite Size [Å]	Micro Strain [%]	Crystallite Size only [Å]	Micro Strain only [%]
1	Cr2O3 1 1 0	36,2298(2)	0,1961(8)	1412,18	152,13	2,47745	5387(17)	0,632(5)	Included	0,262163	 	 	0,175182	0,134504	0,073946	0,062644	917,385400	0,158754	485,236700	0,255283
2	Al2O3 1 1 0	37,71582(1)	0,05067(2)	23293,67	155,27	2,38319	384487(208)	0,3407(7)	Included	0,060584	 	 	0,022855	0,044877	0,073930	0,062631	-1826,238000	-0,055811	29493,340000	0,004040

Note: README.md
# Methods
## RSM analysis

Check out [doc](documentation/RSM.md)

File: w6911a_scan_2th-om_a_Cr2O3_30-40deg_PIXscan_4min_C1.xy
30.0025 94.0
30.0369 114.0
30.0714 117.0
30.1059 122.0
30.1403 116.0
30.1748 110.0
30.2093 124.0
30.2437 97.0
30.2782 113.0
30.3127 114.0
30.3471 107.0
30.3816 125.0
30.4161 92.0
30.4505 107.0
30.485 93.0
30.5195 105.0
30.5539 119.0
30.5884 112.0
30.6229 110.0
30.6573 99.0
30.6918 117.0
30.7263 112.0
30.7607 110.0
30.7952 119.0
30.8297 97.0
30.8641 112.0
30.8986 103.0
30.9331 82.0
30.9675 105.0
31.002 99.0
31.0365 106.0
31.0709 123.0
31.1054 101.0
31.1399 110.0
31.1743 109.0
31.2088 120.0
31.2433 107.0
31.2777 112.0
31.3122 97.0
31.3467 131.0
31.3811 126.0
31.4156 112.0
31.4501 108.0
31.4845 119.0
31.519 113.0
31.5535 104.0
31.5879 126.0
31.6224 106.0
31.6569 109.0
31.6913 108.0
31.7258 93.0
31.7603 130.0
31.7947 97.0
31.8292 96.0
31.8637 102.0
31.8981 90.0
31.9326 112.0
31.9671 96.0
32.0015 122.0
32.036 118.0
32.0705 110.0
32.1049 107.0
32.1394 115.0
32.1739 97.0
32.2083 101.0
32.2428 97.0
32.2773 93.0
32.3118 111.0
32.3462 91.0
32.3807 106.0
32.4152 125.0
32.4496 116.0
32.4841 105.0
32.5186 104.0
32.553 128.0
32.5875 113.0
32.622 133.0
32.6564 122.0
32.6909 124.0
32.7254 111.0
32.7598 105.0
32.7943 118.0
32.8288 129.0
32.8632 107.0
32.8977 116.0
32.9322 122.0
32.9666 107.0
33.0011 122.0
33.0356 96.0
33.07 94.0
33.1045 101.0
33.139 115.0
33.1734 103.0
33.2079 117.0
33.2424 112.0
33.2768 109.0
33.3113 95.0
33.3458 104.0
33.3802 110.0
33.4147 123.0
33.4492 104.0
33.4836 106.0
33.5181 97.0
33.5526 118.0
33.587 98.0
33.6215 126.0
33.656 114.0
33.6904 137.0
33.7249 129.0
33.7594 113.0
33.7938 126.0
33.8283 150.0
33.8628 144.0
33.8972 159.0
33.9317 837.0
33.9662 1185.0
34.0006 403.0
34.0351 185.0
34.0696 124.0
34.104 133.0
34.1385 144.0
34.173 129.0
34.2074 125.0
34.2419 119.0
34.2764 130.0
34.3108 106.0
34.3453 119.0
34.3798 132.0
34.4142 117.0
34.4487 105.0
34.4832 138.0
34.5176 116.0
34.5521 108.0
34.5866 122.0
34.621 122.0
34.6555 121.0
34.69 114.0
34.7244 115.0
34.7589 142.0
34.7934 127.0
34.8278 111.0
34.8623 124.0
34.8968 122.0
34.9312 144.0
34.9657 142.0
35.0002 152.0
35.0346 130.0
35.0691 136.0
35.1036 130.0
35.138 132.0
35.1725 168.0
35.207 126.0
35.2414 149.0
35.2759 147.0
35.3104 143.0
35.3448 150.0
35.3793 165.0
35.4138 174.0
35.4482 171.0
35.4827 168.0
35.5172 153.0
35.5516 171.0
35.5861 187.0
35.6206 182.0
35.655 200.0
35.6895 202.0
35.724 215.0
35.7584 242.0
35.7929 263.0
35.8274 342.0
35.8619 320.0
35.8963 336.0
35.9308 495.0
35.9653 541.0
35.9997 689.0
36.0342 967.0
36.0687 1398.0
36.1031 2279.0
36.1376 3646.0
36.1721 5205.0
36.2065 6536.0
36.241 7112.0
36.2755 7023.0
36.3099 6078.0
36.3444 4610.0
36.3789 3395.0
36.4133 2313.0
36.4478 1583.0
36.4823 1121.0
36.5167 916.0
36.5512 773.0
36.5857 648.0
36.6201 542.0
36.6546 539.0
36.6891 492.0
36.7235 503.0
36.758 483.0
36.7925 486.0
36.8269 494.0
36.8614 526.0
36.8959 529.0
36.9303 491.0
36.9648 563.0
36.9993 558.0
37.0337 573.0
37.0682 633.0
37.1027 691.0
37.1371 658.0
37.1716 646.0
37.2061 690.0
37.2405 783.0
37.275 824.0
37.3095 1016.0
37.3439 982.0
37.3784 1168.0
37.4129 1334.0
37.4473 1485.0
37.4818 1914.0
37.5163 3582.0
37.5507 5240.0
37.5852 5484.0
37.6197 6956.0
37.6541 18964.0
37.6886 222545.0
37.7231 341470.0
37.7575 66802.0
37.792 148298.0
37.8265 166459.0
37.8609 22341.0
37.8954 6603.0
37.9299 3894.0
37.9643 2782.0
37.9988 2070.0
38.0333 1659.0
38.0677 1316.0
38.1022 1110.0
38.1367 1009.0
38.1711 915.0
38.2056 751.0
38.2401 662.0
38.2745 600.0
38.309 546.0
38.3435 463.0
38.3779 437.0
38.4124 426.0
38.4469 352.0
38.4813 330.0
38.5158 322.0
38.5503 266.0
38.5847 280.0
38.6192 274.0
38.6537 221.0
38.6881 206.0
38.7226 209.0
38.7571 200.0
38.7915 191.0
38.826 170.0
38.8605 179.0
38.8949 193.0
38.9294 173.0
38.9639 166.0
38.9983 148.0
39.0328 162.0
39.0673 169.0
39.1017 167.0
39.1362 155.0
39.1707 147.0
39.2051 181.0
39.2396 206.0
39.2741 168.0
39.3085 161.0
39.343 160.0
39.3775 184.0
39.412 177.0
39.4464 192.0
39.4809 203.0
39.5154 195.0
39.5498 174.0
39.5843 204.0
39.6188 180.0
39.6532 191.0
39.6877 207.0
39.7222 185.0
39.7566 212.0
39.7911 172.0
39.8256 156.0
39.86 142.0
39.8945 146.0
39.929 127.0
39.9634 125.0
39.9979 122.0