Folder: DataAnalysis/data/W6788r/XRD_2ThetaOmega

Note: data/W6788r/XRD_2ThetaOmega/W6788r_peaks.TXT
No.	Label	Pos. [°2Th.]	FWHM Left [°2Th.]	Area calc.	Assignment	h	k	l	Multiplicity	F obs.	F calc.	Area [cts*°2Th.]	Derivation	Backgr.[cts]	d-spacing [Å]	Height [cts]	K-A2 / K-A1 Ratio	Matched	Matched by	Rel. Int. [%]	Source	Status	Integral Breadth [°2Th.]
1	Cr2O3 0 1 2	24,3183(9)	0,326(2)	0,00	 	0	1	2	 	0,000000	0,000000	130,53	Pure KA1	41,58	3,65716	376(3)	0,500	False	 	0,72	Profile fitting	Included	0,347171
2	Al2O3 0 1 2	25,52415(3)	0,04807(7)	0,00	 	0	1	2	 	0,000000	0,000000	2914,23	Pure KA1	43,00	3,48705	52195(82)	0,500	False	 	100,00	Profile fitting	Included	0,055834
3	Cr2O3 0 2 4	49,921(2)	0,533(4)	0,00	 	0	2	4	 	0,000000	0,000000	82,86	Pure KA1	29,86	1,82539	146(2)	0,500	False	 	0,28	Profile fitting	Included	0,567080
4	Al2O3 0 2 4	52,50197(3)	0,05468(8)	0,00	 	0	2	4	 	0,000000	0,000000	3276,13	Pure KA1	33,50	1,74156	48578(74)	0,500	False	 	93,07	Profile fitting	Included	0,067441
5	Cr2O3 0 3 6	78,65(3)	0,9(1)	0,00	 	0	3	6	 	0,000000	0,000000	6,31	Pure KA1	11,21	1,21553	7(1)	0,500	False	 	0,01	Profile fitting	Included	0,905937
6	Al2O3 0 3 6	83,1775(2)	0,0691(4)	0,00	 	0	3	6	 	0,000000	0,000000	178,27	Pure KA1	13,63	1,16047	2083(9)	0,500	False	 	3,99	Profile fitting	Included	0,085571
7	Al2O3 0 4 8	124,5915(1)	0,1015(5)	0,00	 	0	4	8	 	0,000000	0,000000	1204,87	Pure KA1	20,53	0,87004	8483(26)	0,500	False	 	16,25	Profile fitting	Included	0,142031

Note: README.md
# Methods
## RSM analysis

Check out [doc](documentation/RSM.md)

File: W6788r_absolute_2th-om_10-130deg_PIXscan_17min_4.xy
10.0035 17.0
10.4072 22.0
10.811 27.0
11.2147 21.0
11.6185 21.0
12.0222 16.0
12.426 25.0
12.8298 26.0
13.2335 19.0
13.6373 20.0
14.041 21.0
14.4448 25.0
14.8485 13.0
15.2523 23.0
15.656 17.0
16.0598 13.0
16.4636 19.0
16.8673 14.0
17.2711 16.0
17.6748 13.0
18.0786 18.0
18.4823 18.0
18.8861 13.0
19.2899 27.0
19.6936 9.0
20.0974 25.0
20.5011 8.0
20.9049 10.0
21.3086 19.0
21.7124 16.0
22.1161 8.0
22.5199 18.0
22.9237 23.0
23.3274 13.0
23.7312 29.0
24.1349 196.0
24.5387 241.0
24.9424 62.0
25.3462 256.0
25.75 361.0
26.1537 81.0
26.5575 32.0
26.9612 25.0
27.365 14.0
27.7687 11.0
28.1725 13.0
28.5762 13.0
28.98 8.0
29.3838 9.0
29.7875 13.0
30.1913 6.0
30.595 17.0
30.9988 11.0
31.4025 9.0
31.8063 10.0
32.2101 8.0
32.6138 9.0
33.0176 10.0
33.4213 9.0
33.8251 14.0
34.2288 9.0
34.6326 13.0
35.0363 10.0
35.4401 9.0
35.8439 10.0
36.2476 12.0
36.6514 11.0
37.0551 10.0
37.4589 5.0
37.8626 15.0
38.2664 11.0
38.6702 10.0
39.0739 15.0
39.4777 15.0
39.8814 8.0
40.2852 6.0
40.6889 11.0
41.0927 12.0
41.4964 11.0
41.9002 11.0
42.304 14.0
42.7077 5.0
43.1115 9.0
43.5152 7.0
43.919 10.0
44.3227 15.0
44.7265 8.0
45.1303 8.0
45.534 9.0
45.9378 13.0
46.3415 11.0
46.7453 15.0
47.149 55.0
47.5528 9.0
47.9565 11.0
48.3603 10.0
48.7641 12.0
49.1678 21.0
49.5716 79.0
49.9753 225.0
50.3791 51.0
50.7828 29.0
51.1866 22.0
51.5903 46.0
51.9941 89.0
52.3979 1071.0
52.8016 502.0
53.2054 105.0
53.6091 58.0
54.0129 23.0
54.4166 27.0
54.8204 16.0
55.2242 15.0
55.6279 17.0
56.0317 13.0
56.4354 12.0
56.8392 8.0
57.2429 13.0
57.6467 11.0
58.0504 12.0
58.4542 13.0
58.858 14.0
59.2617 12.0
59.6655 12.0
60.0692 7.0
60.473 12.0
60.8767 5.0
61.2805 13.0
61.6843 10.0
62.088 18.0
62.4918 14.0
62.8955 15.0
63.2993 8.0
63.703 11.0
64.1068 13.0
64.5105 11.0
64.9143 9.0
65.3181 15.0
65.7218 10.0
66.1256 18.0
66.5293 15.0
66.9331 12.0
67.3368 15.0
67.7406 7.0
68.1444 9.0
68.5481 12.0
68.9519 9.0
69.3556 14.0
69.7594 12.0
70.1631 15.0
70.5669 10.0
70.9706 9.0
71.3744 12.0
71.7782 15.0
72.1819 18.0
72.5857 11.0
72.9894 16.0
73.3932 7.0
73.7969 12.0
74.2007 8.0
74.6045 4.0
75.0082 13.0
75.412 16.0
75.8157 10.0
76.2195 9.0
76.6232 11.0
77.027 9.0
77.4307 18.0
77.8345 8.0
78.2383 14.0
78.642 28.0
79.0458 11.0
79.4495 11.0
79.8533 8.0
80.257 11.0
80.6608 10.0
81.0646 19.0
81.4683 14.0
81.8721 18.0
82.2758 10.0
82.6796 16.0
83.0833 114.0
83.4871 256.0
83.8908 15.0
84.2946 16.0
84.6984 20.0
85.1021 11.0
85.5059 10.0
85.9096 16.0
86.3134 10.0
86.7171 7.0
87.1209 8.0
87.5247 7.0
87.9284 9.0
88.3322 12.0
88.7359 7.0
89.1397 15.0
89.5434 6.0
89.9472 11.0
90.3509 15.0
90.7547 10.0
91.1585 10.0
91.5622 13.0
91.966 10.0
92.3697 11.0
92.7735 6.0
93.1772 12.0
93.581 10.0
93.9848 10.0
94.3885 5.0
94.7923 12.0
95.196 11.0
95.5998 8.0
96.0035 11.0
96.4073 9.0
96.811 11.0
97.2148 9.0
97.6186 21.0
98.0223 13.0
98.4261 15.0
98.8298 13.0
99.2336 8.0
99.6373 7.0
100.041 10.0
100.445 9.0
100.849 14.0
101.252 13.0
101.656 8.0
102.06 12.0
102.464 9.0
102.867 12.0
103.271 11.0
103.675 7.0
104.079 8.0
104.482 10.0
104.886 9.0
105.29 10.0
105.694 8.0
106.097 9.0
106.501 11.0
106.905 8.0
107.309 17.0
107.712 16.0
108.116 12.0
108.52 10.0
108.924 15.0
109.327 7.0
109.731 14.0
110.135 11.0
110.539 11.0
110.943 10.0
111.346 12.0
111.75 15.0
112.154 16.0
112.558 9.0
112.961 16.0
113.365 10.0
113.769 7.0
114.173 17.0
114.576 12.0
114.98 18.0
115.384 15.0
115.788 12.0
116.191 25.0
116.595 8.0
116.999 14.0
117.403 16.0
117.806 14.0
118.21 13.0
118.614 21.0
119.018 8.0
119.421 17.0
119.825 19.0
120.229 10.0
120.633 14.0
121.036 11.0
121.44 7.0
121.844 18.0
122.248 16.0
122.651 15.0
123.055 22.0
123.459 28.0
123.863 58.0
124.266 116.0
124.67 2305.0
125.074 1836.0
125.478 78.0
125.881 46.0
126.285 39.0
126.689 37.0
127.093 22.0
127.497 17.0
127.9 24.0
128.304 15.0
128.708 20.0
129.112 12.0
129.515 25.0
129.919 16.0
129.998 18.0