Folder: DataAnalysis/data/W6788r/XRD_Omega

Note: data/W6788r/XRD_Omega/W6788r_omega_peaks.TXT
No.	Pos. [記mega]	FWHM Left [記mega]	Area [cts*記mega]	Backgr.[cts]	d-spacing [魔	Height [cts]	Shape Left	Status	Integral Breadth [記mega]	FWHM Right [記mega]	Shape Right	Obs. Lorentz B [記mega]	Obs. Gauss B [記mega]	Instr. Lorentz B [記mega]	Instr. Gauss B [記mega]	Crystallite Size [魔	Micro Strain [%]	Crystallite Size only [魔	Micro Strain only [%]
1	11,6530(6)	0,71(1)	5354,24	3620,45	 	7039(286)	0,00(6)	Included	0,760637	 	 	0,001861	0,760637	0,076461	0,064769	-1189,385000	3,240623	117,061900	3,240986

Note: README.md
# Methods
## RSM analysis

Check out [doc](documentation/RSM.md)

File: W6788r_Cr2O3_scan_omega_2deg_step_0.002deg0_W6788r.xy
10.64740 2835.0
10.65540 2974.0
10.66340 3068.0
10.67140 2910.0
10.67940 3069.0
10.68740 3078.0
10.69540 3068.0
10.70340 3104.0
10.71140 3148.0
10.71940 3236.0
10.72740 3354.0
10.73540 3258.0
10.74340 3389.0
10.75140 3541.0
10.75940 3534.0
10.76740 3633.0
10.77540 3643.0
10.78340 3567.0
10.79140 3608.0
10.79940 3702.0
10.80740 3903.0
10.81540 3831.0
10.82340 3889.0
10.83140 4110.0
10.83940 4117.0
10.84740 4211.0
10.85540 4232.0
10.86340 4328.0
10.87140 4408.0
10.87940 4610.0
10.88740 4552.0
10.89540 4579.0
10.90340 4748.0
10.91140 4815.0
10.91940 4788.0
10.92740 4817.0
10.93540 4911.0
10.94340 5172.0
10.95140 5196.0
10.95940 5123.0
10.96740 5331.0
10.97540 5284.0
10.98340 5616.0
10.99140 5740.0
10.99940 5668.0
11.00740 5964.0
11.01540 5891.0
11.02340 5961.0
11.03140 6063.0
11.03940 6243.0
11.04740 6364.0
11.05540 6491.0
11.06340 6578.0
11.07140 6696.0
11.07940 6751.0
11.08740 6968.0
11.09540 6904.0
11.10340 7230.0
11.11140 7227.0
11.11940 7362.0
11.12740 7510.0
11.13540 7701.0
11.14340 7813.0
11.15140 8160.0
11.15940 8220.0
11.16740 8256.0
11.17540 8525.0
11.18340 8477.0
11.19140 8731.0
11.19940 9026.0
11.20740 9142.0
11.21540 8952.0
11.22340 9133.0
11.23140 9344.0
11.23940 9400.0
11.24740 9597.0
11.25540 9846.0
11.26340 9885.0
11.27140 9961.0
11.27940 10290.0
11.28740 10394.0
11.29540 10435.0
11.30340 10775.0
11.31140 11072.0
11.31940 11065.0
11.32740 11365.0
11.33540 11339.0
11.34340 11573.0
11.35140 11883.0
11.35940 11919.0
11.36740 12159.0
11.37540 12324.0
11.38340 12168.0
11.39140 12540.0
11.39940 12782.0
11.40740 12832.0
11.41540 12869.0
11.42340 12966.0
11.43140 13125.0
11.43940 13206.0
11.44740 13547.0
11.45540 13419.0
11.46340 13684.0
11.47140 13564.0
11.47940 13936.0
11.48740 14217.0
11.49540 14396.0
11.50340 14364.0
11.51140 14364.0
11.51940 14521.0
11.52740 14776.0
11.53540 16018.0
11.54340 18697.0
11.55140 18980.0
11.55940 17196.0
11.56740 15990.0
11.57540 15563.0
11.58340 15584.0
11.59140 15381.0
11.59940 15182.0
11.60740 15365.0
11.61540 15513.0
11.62340 15711.0
11.63140 15654.0
11.63940 15636.0
11.64740 15570.0
11.65540 15786.0
11.66340 15675.0
11.67140 15756.0
11.67940 15493.0
11.68740 15512.0
11.69540 15260.0
11.70340 15328.0
11.71140 15410.0
11.71940 15316.0
11.72740 14967.0
11.73540 15186.0
11.74340 14883.0
11.75140 14856.0
11.75940 15000.0
11.76740 14740.0
11.77540 14481.0
11.78340 14582.0
11.79140 14455.0
11.79940 14337.0
11.80740 14345.0
11.81540 14054.0
11.82340 13843.0
11.83140 13752.0
11.83940 13732.0
11.84740 13610.0
11.85540 13319.0
11.86340 13211.0
11.87140 12925.0
11.87940 12606.0
11.88740 12901.0
11.89540 12388.0
11.90340 12334.0
11.91140 12388.0
11.91940 12243.0
11.92740 12171.0
11.93540 11858.0
11.94340 11725.0
11.95140 11536.0
11.95940 11316.0
11.96740 11249.0
11.97540 10888.0
11.98340 10880.0
11.99140 10667.0
11.99940 10454.0
12.00740 10597.0
12.01540 10250.0
12.02340 10015.0
12.03140 9666.0
12.03940 9427.0
12.04740 9561.0
12.05540 9324.0
12.06340 9085.0
12.07140 8913.0
12.07940 8874.0
12.08740 8669.0
12.09540 8412.0
12.10340 8344.0
12.11140 8256.0
12.11940 8061.0
12.12740 7948.0
12.13540 7892.0
12.14340 7650.0
12.15140 7546.0
12.15940 7273.0
12.16740 7286.0
12.17540 7124.0
12.18340 6870.0
12.19140 6692.0
12.19940 6749.0
12.20740 6652.0
12.21540 6598.0
12.22340 6233.0
12.23140 6482.0
12.23940 6321.0
12.24740 5987.0
12.25540 5910.0
12.26340 5916.0
12.27140 5852.0
12.27940 5609.0
12.28740 5615.0
12.29540 5481.0
12.30340 5540.0
12.31140 5313.0
12.31940 5107.0
12.32740 5265.0
12.33540 5248.0
12.34340 5073.0
12.35140 5029.0
12.35940 4931.0
12.36740 4901.0
12.37540 4773.0
12.38340 4877.0
12.39140 4738.0
12.39940 4674.0
12.40740 4551.0
12.41540 4657.0
12.42340 4578.0
12.43140 4666.0
12.43940 4617.0
12.44740 4581.0
12.45540 4603.0
12.46340 4593.0
12.47140 4734.0
12.47940 4654.0
12.48740 4643.0
12.49540 4767.0
12.50340 4695.0
12.51140 4877.0
12.51940 4878.0
12.52740 4977.0
12.53540 4957.0
12.54340 5019.0
12.55140 5159.0
12.55940 5208.0
12.56740 5324.0
12.57540 5478.0
12.58340 5345.0
12.59140 5589.0
12.59940 5733.0
12.60740 5758.0
12.61540 5881.0
12.62340 5860.0
12.63140 6367.0