Folder: DataAnalysis/data/W6783a/XRD_2ThetaOmega

Note: data/W6783a/XRD_2ThetaOmega/W6783a_peaks.TXT
No.	Label	Pos. [°2Th.]	FWHM Left [°2Th.]	Area calc.	Assignment	h	k	l	Multiplicity	F obs.	F calc.	Area [cts*°2Th.]	Derivation	Backgr.[cts]	d-spacing [Å]	Height [cts]	K-A2 / K-A1 Ratio	Matched	Matched by	Rel. Int. [%]	Source	Status	Integral Breadth [°2Th.]
1	Cr2O3 1 1 0	35,5684(4)	0,210(2)	0,00	 	 	 	 	 	0,000000	0,000000	476,28	Pure KA1	24,91	2,52199	1599(10)	0,500	False	 	4,32	Profile fitting	Included	0,297816
2	Al2O3 1 1 0	37,72831(4)	0,05073(8)	0,00	 	 	 	 	 	0,000000	0,000000	2215,63	Pure KA1	48,72	2,38243	36998(64)	0,500	False	 	100,00	Profile fitting	Included	0,059885
3	Cr2O3 2 2 0	75,417(4)	0,54(2)	0,00	 	 	 	 	 	0,000000	0,000000	53,45	Pure KA1	12,83	1,25939	71(1)	0,500	False	 	0,19	Profile fitting	Included	0,757781
4	Al2O3 2 2 0	80,66344(7)	0,0667(2)	0,00	 	 	 	 	 	0,000000	0,000000	874,80	Pure KA1	23,02	1,19018	10288(32)	0,500	False	 	27,81	Profile fitting	Included	0,085027

Note: README.md
# Methods
## RSM analysis

Check out [doc](documentation/RSM.md)

File: W6783a_absolute_2th-om_10-130deg_PIXscan_17min_8.xy
10.0035 26.0
10.4072 30.0
10.811 25.0
11.2147 23.0
11.6185 16.0
12.0222 18.0
12.426 26.0
12.8298 22.0
13.2335 20.0
13.6373 19.0
14.041 16.0
14.4448 27.0
14.8485 16.0
15.2523 22.0
15.656 26.0
16.0598 22.0
16.4636 18.0
16.8673 22.0
17.2711 26.0
17.6748 26.0
18.0786 16.0
18.4823 8.0
18.8861 26.0
19.2899 14.0
19.6936 16.0
20.0974 9.0
20.5011 13.0
20.9049 15.0
21.3086 22.0
21.7124 15.0
22.1161 11.0
22.5199 11.0
22.9237 20.0
23.3274 15.0
23.7312 11.0
24.1349 14.0
24.5387 16.0
24.9424 21.0
25.3462 18.0
25.75 13.0
26.1537 10.0
26.5575 16.0
26.9612 8.0
27.365 11.0
27.7687 12.0
28.1725 15.0
28.5762 19.0
28.98 9.0
29.3838 11.0
29.7875 17.0
30.1913 9.0
30.595 13.0
30.9988 9.0
31.4025 13.0
31.8063 10.0
32.2101 12.0
32.6138 13.0
33.0176 8.0
33.4213 15.0
33.8251 12.0
34.2288 26.0
34.6326 18.0
35.0363 50.0
35.4401 780.0
35.8439 383.0
36.2476 110.0
36.6514 38.0
37.0551 60.0
37.4589 131.0
37.8626 5091.0
38.2664 107.0
38.6702 66.0
39.0739 34.0
39.4777 16.0
39.8814 9.0
40.2852 16.0
40.6889 16.0
41.0927 15.0
41.4964 13.0
41.9002 10.0
42.304 7.0
42.7077 11.0
43.1115 13.0
43.5152 14.0
43.919 15.0
44.3227 17.0
44.7265 12.0
45.1303 7.0
45.534 15.0
45.9378 15.0
46.3415 12.0
46.7453 18.0
47.149 14.0
47.5528 18.0
47.9565 14.0
48.3603 10.0
48.7641 11.0
49.1678 8.0
49.5716 11.0
49.9753 13.0
50.3791 17.0
50.7828 16.0
51.1866 11.0
51.5903 7.0
51.9941 13.0
52.3979 15.0
52.8016 12.0
53.2054 12.0
53.6091 13.0
54.0129 16.0
54.4166 13.0
54.8204 9.0
55.2242 11.0
55.6279 6.0
56.0317 10.0
56.4354 6.0
56.8392 12.0
57.2429 17.0
57.6467 9.0
58.0504 14.0
58.4542 10.0
58.858 14.0
59.2617 7.0
59.6655 7.0
60.0692 10.0
60.473 8.0
60.8767 17.0
61.2805 16.0
61.6843 11.0
62.088 9.0
62.4918 12.0
62.8955 14.0
63.2993 11.0
63.703 12.0
64.1068 13.0
64.5105 15.0
64.9143 13.0
65.3181 14.0
65.7218 13.0
66.1256 9.0
66.5293 12.0
66.9331 15.0
67.3368 6.0
67.7406 16.0
68.1444 12.0
68.5481 10.0
68.9519 10.0
69.3556 18.0
69.7594 13.0
70.1631 22.0
70.5669 16.0
70.9706 9.0
71.3744 13.0
71.7782 15.0
72.1819 10.0
72.5857 18.0
72.9894 8.0
73.3932 27.0
73.7969 19.0
74.2007 15.0
74.6045 22.0
75.0082 30.0
75.412 103.0
75.8157 54.0
76.2195 20.0
76.6232 41.0
77.027 12.0
77.4307 11.0
77.8345 13.0
78.2383 13.0
78.642 21.0
79.0458 25.0
79.4495 14.0
79.8533 22.0
80.257 75.0
80.6608 9870.0
81.0646 135.0
81.4683 37.0
81.8721 32.0
82.2758 23.0
82.6796 29.0
83.0833 19.0
83.4871 14.0
83.8908 18.0
84.2946 8.0
84.6984 12.0
85.1021 14.0
85.5059 16.0
85.9096 21.0
86.3134 12.0
86.7171 17.0
87.1209 11.0
87.5247 18.0
87.9284 19.0
88.3322 19.0
88.7359 18.0
89.1397 13.0
89.5434 12.0
89.9472 12.0
90.3509 9.0
90.7547 7.0
91.1585 13.0
91.5622 8.0
91.966 9.0
92.3697 12.0
92.7735 12.0
93.1772 10.0
93.581 13.0
93.9848 16.0
94.3885 11.0
94.7923 10.0
95.196 8.0
95.5998 12.0
96.0035 10.0
96.4073 16.0
96.811 15.0
97.2148 8.0
97.6186 13.0
98.0223 11.0
98.4261 12.0
98.8298 17.0
99.2336 18.0
99.6373 19.0
100.041 13.0
100.445 7.0
100.849 4.0
101.252 10.0
101.656 16.0
102.06 13.0
102.464 15.0
102.867 11.0
103.271 19.0
103.675 14.0
104.079 10.0
104.482 15.0
104.886 11.0
105.29 13.0
105.694 14.0
106.097 8.0
106.501 16.0
106.905 13.0
107.309 14.0
107.712 15.0
108.116 12.0
108.52 7.0
108.924 10.0
109.327 6.0
109.731 16.0
110.135 10.0
110.539 15.0
110.943 10.0
111.346 11.0
111.75 8.0
112.154 20.0
112.558 10.0
112.961 8.0
113.365 12.0
113.769 13.0
114.173 17.0
114.576 8.0
114.98 14.0
115.384 9.0
115.788 10.0
116.191 16.0
116.595 14.0
116.999 24.0
117.403 14.0
117.806 21.0
118.21 15.0
118.614 14.0
119.018 12.0
119.421 21.0
119.825 8.0
120.229 15.0
120.633 15.0
121.036 17.0
121.44 12.0
121.844 6.0
122.248 13.0
122.651 27.0
123.055 14.0
123.459 17.0
123.863 13.0
124.266 9.0
124.67 20.0
125.074 10.0
125.478 7.0
125.881 13.0
126.285 9.0
126.689 15.0
127.093 13.0
127.497 14.0
127.9 11.0
128.304 13.0
128.708 13.0
129.112 13.0
129.515 8.0
129.919 12.0
129.998 12.0