Folder: DataAnalysis/data/w6928m/XRD_Omega

Note: data/w6928m/XRD_Omega/W6928m_omega_peaks.TXT
No.	Label	Pos. [記mega]	FWHM Left [記mega]	Area [cts*記mega]	Backgr.[cts]	d-spacing [魔	Height [cts]	Shape Left	Status	Integral Breadth [記mega]	FWHM Right [記mega]	Shape Right	Obs. Lorentz B [記mega]	Obs. Gauss B [記mega]	Instr. Lorentz B [記mega]	Instr. Gauss B [記mega]	Crystallite Size [魔	Micro Strain [%]	Crystallite Size only [魔	Micro Strain only [%]
1	Cr2O3 3 0 0	31,6836(4)	0,5681(9)	2020,95	34,03	 	3086(6)	0,238(2)	Included	0,654916	 	 	0,175478	0,536434	0,074099	0,062773	905,068300	0,819200	153,194200	0,920986

Note: README.md
# Methods
## RSM analysis

Check out [doc](documentation/RSM.md)

File: film_m_can_omega_4deg_step_0.005deg0_C1.xy
29.68460 31.0
29.69960 39.0
29.71460 36.0
29.72960 36.0
29.74460 36.0
29.75960 40.0
29.77460 32.0
29.78960 37.0
29.80460 38.0
29.81960 35.0
29.83460 38.0
29.84960 40.0
29.86460 44.0
29.87960 42.0
29.89460 37.0
29.90960 41.0
29.92460 38.0
29.93960 50.0
29.95460 39.0
29.96960 48.0
29.98460 40.0
29.99960 41.0
30.01460 51.0
30.02960 46.0
30.04460 46.0
30.05960 37.0
30.07460 38.0
30.08960 48.0
30.10460 38.0
30.11960 45.0
30.13460 43.0
30.14960 55.0
30.16460 51.0
30.17960 42.0
30.19460 33.0
30.20960 48.0
30.22460 43.0
30.23960 57.0
30.25460 47.0
30.26960 43.0
30.28460 56.0
30.29960 47.0
30.31460 54.0
30.32960 41.0
30.34460 50.0
30.35960 45.0
30.37460 51.0
30.38960 57.0
30.40460 58.0
30.41960 56.0
30.43460 54.0
30.44960 69.0
30.46460 67.0
30.47960 72.0
30.49460 58.0
30.50960 58.0
30.52460 59.0
30.53960 84.0
30.55460 78.0
30.56960 73.0
30.58460 82.0
30.59960 78.0
30.61460 65.0
30.62960 85.0
30.64460 79.0
30.65960 86.0
30.67460 84.0
30.68960 82.0
30.70460 76.0
30.71960 83.0
30.73460 89.0
30.74960 101.0
30.76460 113.0
30.77960 89.0
30.79460 109.0
30.80960 110.0
30.82460 126.0
30.83960 135.0
30.85460 126.0
30.86960 149.0
30.88460 132.0
30.89960 170.0
30.91460 154.0
30.92960 181.0
30.94460 176.0
30.95960 160.0
30.97460 187.0
30.98960 213.0
31.00460 232.0
31.01960 243.0
31.03460 232.0
31.04960 288.0
31.06460 298.0
31.07960 314.0
31.09460 330.0
31.10960 359.0
31.12460 348.0
31.13960 399.0
31.15460 426.0
31.16960 452.0
31.18460 554.0
31.19960 595.0
31.21460 684.0
31.22960 732.0
31.24460 729.0
31.25960 882.0
31.27460 914.0
31.28960 1050.0
31.30460 1065.0
31.31960 1229.0
31.33460 1302.0
31.34960 1511.0
31.36460 1553.0
31.37960 1820.0
31.39460 1952.0
31.40960 2120.0
31.42460 2372.0
31.43960 2503.0
31.45460 2773.0
31.46960 2972.0
31.48460 3190.0
31.49960 3349.0
31.51460 3592.0
31.52960 3783.0
31.54460 4093.0
31.55960 4224.0
31.57460 4366.0
31.58960 4276.0
31.60460 4530.0
31.61960 4611.0
31.63460 4658.0
31.64960 4842.0
31.66460 4722.0
31.67960 4786.0
31.69460 4735.0
31.70960 4691.0
31.72460 4589.0
31.73960 4569.0
31.75460 4399.0
31.76960 4387.0
31.78460 4209.0
31.79960 4244.0
31.81460 3969.0
31.82960 3750.0
31.84460 3694.0
31.85960 3564.0
31.87460 3492.0
31.88960 3303.0
31.90460 3146.0
31.91960 2883.0
31.93460 2793.0
31.94960 2659.0
31.96460 2456.0
31.97960 2302.0
31.99460 2155.0
32.00960 2101.0
32.02460 1892.0
32.03960 1778.0
32.05460 1657.0
32.06960 1553.0
32.08460 1417.0
32.09960 1285.0
32.11460 1262.0
32.12960 1229.0
32.14460 1112.0
32.15960 996.0
32.17460 959.0
32.18960 908.0
32.20460 863.0
32.21960 781.0
32.23460 725.0
32.24960 686.0
32.26460 604.0
32.27960 606.0
32.29460 627.0
32.30960 526.0
32.32460 528.0
32.33960 468.0
32.35460 449.0
32.36960 403.0
32.38460 333.0
32.39960 313.0
32.41460 323.0
32.42960 300.0
32.44460 278.0
32.45960 251.0
32.47460 246.0
32.48960 199.0
32.50460 191.0
32.51960 179.0
32.53460 187.0
32.54960 182.0
32.56460 162.0
32.57960 138.0
32.59460 141.0
32.60960 175.0
32.62460 168.0
32.63960 125.0
32.65460 142.0
32.66960 131.0
32.68460 112.0
32.69960 103.0
32.71460 120.0
32.72960 94.0
32.74460 139.0
32.75960 94.0
32.77460 102.0
32.78960 106.0
32.80460 89.0
32.81960 93.0
32.83460 78.0
32.84960 87.0
32.86460 87.0
32.87960 70.0
32.89460 76.0
32.90960 70.0
32.92460 68.0
32.93960 71.0
32.95460 76.0
32.96960 48.0
32.98460 65.0
32.99960 62.0
33.01460 80.0
33.02960 58.0
33.04460 68.0
33.05960 67.0
33.07460 64.0
33.08960 45.0
33.10460 68.0
33.11960 59.0
33.13460 54.0
33.14960 59.0
33.16460 35.0
33.17960 59.0
33.19460 50.0
33.20960 56.0
33.22460 53.0
33.23960 47.0
33.25460 53.0
33.26960 67.0
33.28460 46.0
33.29960 27.0
33.31460 46.0
33.32960 50.0
33.34460 46.0
33.35960 46.0
33.37460 41.0
33.38960 43.0
33.40460 61.0
33.41960 50.0
33.43460 49.0
33.44960 48.0
33.46460 46.0
33.47960 41.0
33.49460 40.0
33.50960 49.0
33.52460 43.0
33.53960 46.0
33.55460 33.0
33.56960 59.0
33.58460 39.0
33.59960 41.0
33.61460 40.0
33.62960 37.0
33.64460 37.0