Folder: DataAnalysis/data/w6928m/XRD_2ThetaOmega

Note: data/w6928m/XRD_2ThetaOmega/W6928m_peaks.TXT
No.	Label	Pos. [°2Th.]	FWHM Left [°2Th.]	Area [cts*°2Th.]	Backgr.[cts]	d-spacing [Å]	Height [cts]	Shape Left	Status	Integral Breadth [°2Th.]	FWHM Right [°2Th.]	Shape Right	Obs. Lorentz B [°2Th.]	Obs. Gauss B [°2Th.]	Instr. Lorentz B [°2Th.]	Instr. Gauss B [°2Th.]	Crystallite Size [Å]	Micro Strain [%]	Crystallite Size only [Å]	Micro Strain only [%]
1	Cr2O3 3 0 0	64,7788(3)	0,221(1)	1439,03	100,93	1,43801	4881(17)	0,622(5)	Included	0,294850	 	 	0,194008	0,153877	0,077407	0,065578	896,492700	0,095749	469,932000	0,153002
2	Al2O3 3 0 0	68,16152(1)	0,04433(6)	13794,93	115,46	1,37465	227465(208)	0,689(2)	Included	0,060646	 	 	0,043724	0,028256	0,078470	0,066478	-3067,225000	-0,038808	33697,880000	0,002040

Note: README.md
# Methods
## RSM analysis

Check out [doc](documentation/RSM.md)

File: 28m_scan_2th-om_m_Cr2O3_55-75deg_PIXscan_4min_1.xy
55.0019 52.0
55.0708 54.0
55.1397 57.0
55.2087 54.0
55.2776 65.0
55.3465 53.0
55.4155 50.0
55.4844 58.0
55.5533 57.0
55.6223 67.0
55.6912 74.0
55.7601 63.0
55.8291 50.0
55.898 49.0
55.9669 70.0
56.0359 58.0
56.1048 68.0
56.1737 58.0
56.2427 50.0
56.3116 67.0
56.3805 50.0
56.4495 51.0
56.5184 54.0
56.5873 64.0
56.6563 64.0
56.7252 61.0
56.7941 59.0
56.8631 67.0
56.932 55.0
57.0009 56.0
57.0699 60.0
57.1388 64.0
57.2077 72.0
57.2767 62.0
57.3456 54.0
57.4146 74.0
57.4835 58.0
57.5524 72.0
57.6214 62.0
57.6903 57.0
57.7592 66.0
57.8282 66.0
57.8971 94.0
57.966 90.0
58.035 78.0
58.1039 65.0
58.1728 66.0
58.2418 57.0
58.3107 68.0
58.3796 74.0
58.4486 74.0
58.5175 57.0
58.5864 72.0
58.6554 61.0
58.7243 59.0
58.7932 71.0
58.8622 66.0
58.9311 53.0
59 53.0
59.069 60.0
59.1379 60.0
59.2068 52.0
59.2758 64.0
59.3447 61.0
59.4136 51.0
59.4826 57.0
59.5515 64.0
59.6204 54.0
59.6894 60.0
59.7583 65.0
59.8272 58.0
59.8962 53.0
59.9651 50.0
60.034 62.0
60.103 50.0
60.1719 60.0
60.2408 47.0
60.3098 80.0
60.3787 69.0
60.4476 72.0
60.5166 69.0
60.5855 84.0
60.6544 67.0
60.7234 104.0
60.7923 256.0
60.8613 559.0
60.9302 279.0
60.9991 109.0
61.0681 79.0
61.137 77.0
61.2059 66.0
61.2749 71.0
61.3438 77.0
61.4127 57.0
61.4817 80.0
61.5506 79.0
61.6195 61.0
61.6885 80.0
61.7574 73.0
61.8263 74.0
61.8953 79.0
61.9642 65.0
62.0331 54.0
62.1021 57.0
62.171 64.0
62.2399 67.0
62.3089 65.0
62.3778 68.0
62.4467 56.0
62.5157 75.0
62.5846 66.0
62.6535 71.0
62.7225 66.0
62.7914 78.0
62.8603 79.0
62.9293 81.0
62.9982 78.0
63.0671 86.0
63.1361 86.0
63.205 85.0
63.2739 100.0
63.3429 93.0
63.4118 88.0
63.4807 101.0
63.5497 93.0
63.6186 97.0
63.6875 92.0
63.7565 102.0
63.8254 118.0
63.8943 135.0
63.9633 136.0
64.0322 135.0
64.1011 166.0
64.1701 196.0
64.239 256.0
64.3079 312.0
64.3769 387.0
64.4458 541.0
64.5148 827.0
64.5837 1260.0
64.6526 2259.0
64.7216 4059.0
64.7905 5888.0
64.8594 4615.0
64.9284 3877.0
64.9973 3073.0
65.0662 1744.0
65.1352 936.0
65.2041 459.0
65.273 385.0
65.342 314.0
65.4109 207.0
65.4798 195.0
65.5488 193.0
65.6177 157.0
65.6866 158.0
65.7556 126.0
65.8245 127.0
65.8934 140.0
65.9624 138.0
66.0313 136.0
66.1002 127.0
66.1692 133.0
66.2381 144.0
66.307 128.0
66.376 127.0
66.4449 105.0
66.5138 127.0
66.5828 142.0
66.6517 151.0
66.7206 159.0
66.7896 171.0
66.8585 175.0
66.9274 195.0
66.9964 210.0
67.0653 191.0
67.1342 272.0
67.2032 260.0
67.2721 293.0
67.341 310.0
67.41 390.0
67.4789 366.0
67.5478 444.0
67.6168 469.0
67.6857 648.0
67.7546 1013.0
67.8236 1709.0
67.8925 1688.0
67.9615 1919.0
68.0304 3957.0
68.0993 15009.0
68.1683 209498.0
68.2372 12279.0
68.3061 16924.0
68.3751 62868.0
68.444 4826.0
68.5129 2100.0
68.5819 1320.0
68.6508 939.0
68.7197 728.0
68.7887 590.0
68.8576 450.0
68.9265 399.0
68.9955 368.0
69.0644 310.0
69.1333 290.0
69.2023 202.0
69.2712 224.0
69.3401 155.0
69.4091 168.0
69.478 153.0
69.5469 153.0
69.6159 136.0
69.6848 123.0
69.7537 102.0
69.8227 107.0
69.8916 93.0
69.9605 101.0
70.0295 78.0
70.0984 91.0
70.1673 90.0
70.2363 80.0
70.3052 110.0
70.3741 89.0
70.4431 75.0
70.512 87.0
70.5809 79.0
70.6499 77.0
70.7188 86.0
70.7877 83.0
70.8567 76.0
70.9256 75.0
70.9945 87.0
71.0635 49.0
71.1324 80.0
71.2013 71.0
71.2703 89.0
71.3392 83.0
71.4082 65.0
71.4771 68.0
71.546 79.0
71.615 74.0
71.6839 65.0
71.7528 55.0
71.8218 54.0
71.8907 71.0
71.9596 58.0
72.0286 69.0
72.0975 71.0
72.1664 70.0
72.2354 73.0
72.3043 60.0
72.3732 61.0
72.4422 72.0
72.5111 68.0
72.58 60.0
72.649 67.0
72.7179 83.0
72.7868 61.0
72.8558 71.0
72.9247 82.0
72.9936 67.0
73.0626 70.0
73.1315 59.0
73.2004 56.0
73.2694 54.0
73.3383 67.0
73.4072 66.0
73.4762 59.0
73.5451 57.0
73.614 72.0
73.683 58.0
73.7519 72.0
73.8208 64.0
73.8898 68.0
73.9587 61.0
74.0276 59.0
74.0966 65.0
74.1655 61.0
74.2344 86.0
74.3034 63.0
74.3723 64.0
74.4412 64.0
74.5102 75.0
74.5791 53.0
74.648 52.0
74.717 62.0
74.7859 52.0
74.8548 75.0
74.9238 70.0
74.9927 60.0
74.9976 75.0