Folder: DataAnalysis/data/W6900m/XRD_Omega

Note: data/W6900m/XRD_Omega/W6900m_omega_peaks.TXT
No.	Label	Pos. [記mega]	FWHM Left [記mega]	Area [cts*記mega]	Backgr.[cts]	d-spacing [魔	Height [cts]	Shape Left	Status	Integral Breadth [記mega]	FWHM Right [記mega]	Shape Right	Obs. Lorentz B [記mega]	Obs. Gauss B [記mega]	Instr. Lorentz B [記mega]	Instr. Gauss B [記mega]	Crystallite Size [魔	Micro Strain [%]	Crystallite Size only [魔	Micro Strain only [%]
1	Cr2O3 3 0 0	31,908(1)	0,701(3)	445,17	84,92	 	516(2)	0,42(1)	Included	0,862671	 	 	0,394854	0,587737	0,074088	0,062764	286,208000	0,891931	113,990300	1,229252

Note: README.md
# Methods
## RSM analysis

Check out [doc](documentation/RSM.md)

File: scan_omega_4deg_step_0.005deg0_C1_2.xy
29.91400 96.0
29.92900 96.0
29.94400 107.0
29.95900 82.0
29.97400 91.0
29.98900 95.0
30.00400 97.0
30.01900 75.0
30.03400 89.0
30.04900 84.0
30.06400 93.0
30.07900 101.0
30.09400 94.0
30.10900 90.0
30.12400 104.0
30.13900 99.0
30.15400 94.0
30.16900 110.0
30.18400 117.0
30.19900 96.0
30.21400 106.0
30.22900 87.0
30.24400 75.0
30.25900 84.0
30.27400 81.0
30.28900 95.0
30.30400 101.0
30.31900 82.0
30.33400 93.0
30.34900 82.0
30.36400 100.0
30.37900 99.0
30.39400 95.0
30.40900 81.0
30.42400 112.0
30.43900 108.0
30.45400 102.0
30.46900 107.0
30.48400 96.0
30.49900 91.0
30.51400 87.0
30.52900 97.0
30.54400 105.0
30.55900 101.0
30.57400 88.0
30.58900 96.0
30.60400 85.0
30.61900 96.0
30.63400 93.0
30.64900 109.0
30.66400 126.0
30.67900 106.0
30.69400 96.0
30.70900 116.0
30.72400 85.0
30.73900 100.0
30.75400 97.0
30.76900 114.0
30.78400 100.0
30.79900 116.0
30.81400 107.0
30.82900 117.0
30.84400 109.0
30.85900 111.0
30.87400 109.0
30.88900 120.0
30.90400 124.0
30.91900 114.0
30.93400 101.0
30.94900 121.0
30.96400 121.0
30.97900 118.0
30.99400 127.0
31.00900 103.0
31.02400 109.0
31.03900 114.0
31.05400 127.0
31.06900 137.0
31.08400 136.0
31.09900 136.0
31.11400 148.0
31.12900 132.0
31.14400 146.0
31.15900 156.0
31.17400 161.0
31.18900 151.0
31.20400 172.0
31.21900 161.0
31.23400 171.0
31.24900 201.0
31.26400 177.0
31.27900 192.0
31.29400 202.0
31.30900 218.0
31.32400 221.0
31.33900 206.0
31.35400 232.0
31.36900 207.0
31.38400 232.0
31.39900 250.0
31.41400 288.0
31.42900 272.0
31.44400 330.0
31.45900 312.0
31.47400 320.0
31.48900 333.0
31.50400 362.0
31.51900 379.0
31.53400 394.0
31.54900 422.0
31.56400 440.0
31.57900 462.0
31.59400 469.0
31.60900 524.0
31.62400 518.0
31.63900 547.0
31.65400 616.0
31.66900 589.0
31.68400 563.0
31.69900 677.0
31.71400 686.0
31.72900 660.0
31.74400 758.0
31.75900 735.0
31.77400 755.0
31.78900 805.0
31.80400 815.0
31.81900 835.0
31.83400 819.0
31.84900 936.0
31.86400 877.0
31.87900 863.0
31.89400 869.0
31.90900 890.0
31.92400 859.0
31.93900 856.0
31.95400 849.0
31.96900 867.0
31.98400 853.0
31.99900 780.0
32.01400 792.0
32.02900 766.0
32.04400 743.0
32.05900 742.0
32.07400 739.0
32.08900 707.0
32.10400 690.0
32.11900 696.0
32.13400 665.0
32.14900 607.0
32.16400 643.0
32.17900 592.0
32.19400 621.0
32.20900 518.0
32.22400 578.0
32.23900 541.0
32.25400 494.0
32.26900 466.0
32.28400 449.0
32.29900 459.0
32.31400 445.0
32.32900 445.0
32.34400 394.0
32.35900 371.0
32.37400 374.0
32.38900 333.0
32.40400 341.0
32.41900 317.0
32.43400 282.0
32.44900 286.0
32.46400 286.0
32.47900 272.0
32.49400 218.0
32.50900 232.0
32.52400 200.0
32.53900 226.0
32.55400 214.0
32.56900 213.0
32.58400 210.0
32.59900 198.0
32.61400 214.0
32.62900 208.0
32.64400 164.0
32.65900 170.0
32.67400 186.0
32.68900 159.0
32.70400 142.0
32.71900 188.0
32.73400 162.0
32.74900 149.0
32.76400 159.0
32.77900 148.0
32.79400 151.0
32.80900 135.0
32.82400 131.0
32.83900 149.0
32.85400 135.0
32.86900 131.0
32.88400 136.0
32.89900 141.0
32.91400 128.0
32.92900 128.0
32.94400 119.0
32.95900 123.0
32.97400 131.0
32.98900 116.0
33.00400 125.0
33.01900 119.0
33.03400 100.0
33.04900 113.0
33.06400 117.0
33.07900 104.0
33.09400 88.0
33.10900 98.0
33.12400 95.0
33.13900 116.0
33.15400 111.0
33.16900 102.0
33.18400 97.0
33.19900 87.0
33.21400 87.0
33.22900 94.0
33.24400 106.0
33.25900 108.0
33.27400 98.0
33.28900 83.0
33.30400 90.0
33.31900 80.0
33.33400 95.0
33.34900 94.0
33.36400 89.0
33.37900 77.0
33.39400 91.0
33.40900 97.0
33.42400 110.0
33.43900 86.0
33.45400 102.0
33.46900 86.0
33.48400 96.0
33.49900 104.0
33.51400 84.0
33.52900 79.0
33.54400 69.0
33.55900 96.0
33.57400 85.0
33.58900 88.0
33.60400 93.0
33.61900 81.0
33.63400 91.0
33.64900 80.0
33.66400 63.0
33.67900 89.0
33.69400 109.0
33.70900 96.0
33.72400 95.0
33.73900 88.0
33.75400 100.0
33.76900 96.0
33.78400 106.0
33.79900 99.0
33.81400 84.0
33.82900 87.0
33.84400 99.0
33.85900 94.0
33.87400 74.0