Folder: DataAnalysis/data/W6900m/XRD_2ThetaOmega

Note: data/W6900m/XRD_2ThetaOmega/W6900m_peaks.TXT
No.	Label	Pos. [°2Th.]	FWHM Left [°2Th.]	Area [cts*°2Th.]	Backgr.[cts]	d-spacing [Å]	Height [cts]	Shape Left	Status	Integral Breadth [°2Th.]	FWHM Right [°2Th.]	Shape Right	Obs. Lorentz B [°2Th.]	Obs. Gauss B [°2Th.]	Instr. Lorentz B [°2Th.]	Instr. Gauss B [°2Th.]	Crystallite Size [Å]	Micro Strain [%]	Crystallite Size only [Å]	Micro Strain only [%]
1	Cr2O3 3 0 0	64,412(1)	0,530(3)	354,80	250,66	1,44531	629(4)	0,00(2)	Included	0,564443	 	 	0,001381	0,564443	0,077302	0,065489	-1374,070000	0,388361	186,056700	0,388405
2	Al2O3 3 0 0	68,16185(1)	0,06173(5)	27534,89	286,17	1,37464	346637(206)	0,5362(9)	Included	0,079434	 	 	0,045696	0,046894	0,078470	0,066478	-3251,775000	-0,030389	33697,950000	0,002040

Note: README.md
# Methods
## RSM analysis

Check out [doc](documentation/RSM.md)

File: scan_2th-om_m_Cr2O3_55-75deg_PIXscan_4min_C1.xy
55.0019 147.0
55.0708 137.0
55.1397 170.0
55.2087 153.0
55.2776 167.0
55.3465 154.0
55.4155 139.0
55.4844 171.0
55.5533 156.0
55.6223 175.0
55.6912 144.0
55.7601 148.0
55.8291 154.0
55.898 150.0
55.9669 174.0
56.0359 178.0
56.1048 149.0
56.1737 149.0
56.2427 153.0
56.3116 186.0
56.3805 138.0
56.4495 142.0
56.5184 166.0
56.5873 151.0
56.6563 155.0
56.7252 156.0
56.7941 157.0
56.8631 155.0
56.932 174.0
57.0009 152.0
57.0699 138.0
57.1388 142.0
57.2077 143.0
57.2767 145.0
57.3456 187.0
57.4146 162.0
57.4835 157.0
57.5524 170.0
57.6214 156.0
57.6903 133.0
57.7592 183.0
57.8282 168.0
57.8971 172.0
57.966 184.0
58.035 150.0
58.1039 154.0
58.1728 152.0
58.2418 143.0
58.3107 180.0
58.3796 146.0
58.4486 174.0
58.5175 142.0
58.5864 154.0
58.6554 163.0
58.7243 158.0
58.7932 179.0
58.8622 180.0
58.9311 163.0
59 151.0
59.069 167.0
59.1379 148.0
59.2068 145.0
59.2758 175.0
59.3447 169.0
59.4136 162.0
59.4826 161.0
59.5515 167.0
59.6204 173.0
59.6894 160.0
59.7583 168.0
59.8272 174.0
59.8962 159.0
59.9651 143.0
60.034 151.0
60.103 166.0
60.1719 153.0
60.2408 171.0
60.3098 167.0
60.3787 164.0
60.4476 175.0
60.5166 162.0
60.5855 164.0
60.6544 162.0
60.7234 208.0
60.7923 653.0
60.8613 1014.0
60.9302 376.0
60.9991 205.0
61.0681 191.0
61.137 172.0
61.2059 175.0
61.2749 172.0
61.3438 163.0
61.4127 177.0
61.4817 174.0
61.5506 168.0
61.6195 179.0
61.6885 176.0
61.7574 164.0
61.8263 165.0
61.8953 196.0
61.9642 200.0
62.0331 165.0
62.1021 188.0
62.171 150.0
62.2399 166.0
62.3089 186.0
62.3778 156.0
62.4467 182.0
62.5157 176.0
62.5846 171.0
62.6535 187.0
62.7225 191.0
62.7914 175.0
62.8603 181.0
62.9293 179.0
62.9982 191.0
63.0671 186.0
63.1361 189.0
63.205 173.0
63.2739 213.0
63.3429 204.0
63.4118 220.0
63.4807 223.0
63.5497 231.0
63.6186 243.0
63.6875 243.0
63.7565 259.0
63.8254 306.0
63.8943 281.0
63.9633 339.0
64.0322 419.0
64.1011 478.0
64.1701 578.0
64.239 761.0
64.3079 1004.0
64.3769 1147.0
64.4458 1173.0
64.5148 1116.0
64.5837 1081.0
64.6526 856.0
64.7216 741.0
64.7905 619.0
64.8594 526.0
64.9284 446.0
64.9973 358.0
65.0662 308.0
65.1352 320.0
65.2041 255.0
65.273 256.0
65.342 261.0
65.4109 274.0
65.4798 220.0
65.5488 214.0
65.6177 259.0
65.6866 245.0
65.7556 258.0
65.8245 240.0
65.8934 258.0
65.9624 268.0
66.0313 294.0
66.1002 296.0
66.1692 293.0
66.2381 310.0
66.307 297.0
66.376 331.0
66.4449 347.0
66.5138 348.0
66.5828 351.0
66.6517 365.0
66.7206 404.0
66.7896 408.0
66.8585 416.0
66.9274 464.0
66.9964 483.0
67.0653 514.0
67.1342 555.0
67.2032 575.0
67.2721 621.0
67.341 611.0
67.41 705.0
67.4789 752.0
67.5478 927.0
67.6168 1026.0
67.6857 1224.0
67.7546 2102.0
67.8236 3473.0
67.8925 3467.0
67.9615 4035.0
68.0304 8482.0
68.0993 38642.0
68.1683 334616.0
68.2372 28814.0
68.3061 44054.0
68.3751 133716.0
68.444 10911.0
68.5129 4312.0
68.5819 2745.0
68.6508 1950.0
68.7197 1505.0
68.7887 1214.0
68.8576 980.0
68.9265 854.0
68.9955 783.0
69.0644 624.0
69.1333 620.0
69.2023 526.0
69.2712 490.0
69.3401 445.0
69.4091 413.0
69.478 375.0
69.5469 335.0
69.6159 322.0
69.6848 288.0
69.7537 319.0
69.8227 306.0
69.8916 297.0
69.9605 266.0
70.0295 277.0
70.0984 229.0
70.1673 230.0
70.2363 207.0
70.3052 210.0
70.3741 201.0
70.4431 231.0
70.512 229.0
70.5809 206.0
70.6499 178.0
70.7188 193.0
70.7877 199.0
70.8567 207.0
70.9256 205.0
70.9945 167.0
71.0635 203.0
71.1324 190.0
71.2013 178.0
71.2703 181.0
71.3392 187.0
71.4082 190.0
71.4771 206.0
71.546 184.0
71.615 191.0
71.6839 168.0
71.7528 192.0
71.8218 183.0
71.8907 182.0
71.9596 185.0
72.0286 195.0
72.0975 155.0
72.1664 186.0
72.2354 155.0
72.3043 199.0
72.3732 178.0
72.4422 174.0
72.5111 182.0
72.58 154.0
72.649 186.0
72.7179 160.0
72.7868 181.0
72.8558 170.0
72.9247 195.0
72.9936 170.0
73.0626 184.0
73.1315 193.0
73.2004 167.0
73.2694 188.0
73.3383 177.0
73.4072 164.0
73.4762 173.0
73.5451 178.0
73.614 155.0
73.683 152.0
73.7519 152.0
73.8208 153.0
73.8898 153.0
73.9587 189.0
74.0276 177.0
74.0966 179.0
74.1655 173.0
74.2344 157.0
74.3034 169.0
74.3723 187.0
74.4412 170.0
74.5102 156.0
74.5791 162.0
74.648 158.0
74.717 158.0
74.7859 156.0
74.8548 179.0
74.9238 151.0
74.9927 168.0
74.9976 162.0