Folder: DataAnalysis/data/W6911c/XRD_2ThetaOmega

Note: data/W6911c/XRD_2ThetaOmega/W6911c_peaks.TXT
No.	Label	Pos. [°2Th.]	FWHM Left [°2Th.]	Area [cts*°2Th.]	Backgr.[cts]	d-spacing [Å]	Height [cts]	Shape Left	Status	Integral Breadth [°2Th.]	FWHM Right [°2Th.]	Shape Right	Obs. Lorentz B [°2Th.]	Obs. Gauss B [°2Th.]	Instr. Lorentz B [°2Th.]	Instr. Gauss B [°2Th.]	Crystallite Size [Å]	Micro Strain [%]	Crystallite Size only [Å]	Micro Strain only [%]
1	Cr2O3 0 0 6	39,4720(3)	0,159(1)	626,70	134,49	2,28110	2873(17)	0,69(1)	Included	0,218114	 	 	0,158041	0,100893	0,073935	0,062636	1115,013000	0,096198	667,310400	0,170918
2	Al2O3 0 0 6	41,60474(3)	0,05142(6)	4259,83	144,09	2,16897	69654(88)	0,326(2)	Included	0,061157	 	 	0,022132	0,045984	0,073977	0,062671	-1821,294000	-0,048905	29856,540000	0,003632

Note: README.md
# Methods
## RSM analysis

Check out [doc](documentation/RSM.md)

File: w6911c_scan_2th-om_c_Cr2O3_35-45deg_PIXscan_4min.xy
35.0021 115.0
35.0365 113.0
35.071 141.0
35.1055 114.0
35.1399 122.0
35.1744 130.0
35.2089 108.0
35.2433 127.0
35.2778 116.0
35.3123 117.0
35.3467 141.0
35.3812 114.0
35.4157 131.0
35.4501 121.0
35.4846 104.0
35.5191 123.0
35.5535 123.0
35.588 136.0
35.6225 125.0
35.6569 108.0
35.6914 119.0
35.7259 119.0
35.7603 105.0
35.7948 132.0
35.8293 119.0
35.8637 122.0
35.8982 133.0
35.9327 118.0
35.9671 136.0
36.0016 142.0
36.0361 126.0
36.0705 122.0
36.105 128.0
36.1395 128.0
36.1739 114.0
36.2084 120.0
36.2429 123.0
36.2773 129.0
36.3118 127.0
36.3463 89.0
36.3807 117.0
36.4152 126.0
36.4497 98.0
36.4841 108.0
36.5186 100.0
36.5531 112.0
36.5875 132.0
36.622 119.0
36.6565 136.0
36.6909 133.0
36.7254 109.0
36.7599 124.0
36.7943 128.0
36.8288 124.0
36.8633 113.0
36.8977 117.0
36.9322 128.0
36.9667 128.0
37.0011 123.0
37.0356 137.0
37.0701 110.0
37.1045 131.0
37.139 119.0
37.1735 128.0
37.2079 106.0
37.2424 121.0
37.2769 125.0
37.3114 116.0
37.3458 124.0
37.3803 177.0
37.4148 310.0
37.4492 298.0
37.4837 169.0
37.5182 123.0
37.5526 124.0
37.5871 138.0
37.6216 129.0
37.656 143.0
37.6905 130.0
37.725 110.0
37.7594 110.0
37.7939 157.0
37.8284 117.0
37.8628 141.0
37.8973 134.0
37.9318 122.0
37.9662 132.0
38.0007 125.0
38.0352 121.0
38.0696 153.0
38.1041 122.0
38.1386 118.0
38.173 129.0
38.2075 110.0
38.242 130.0
38.2764 122.0
38.3109 136.0
38.3454 161.0
38.3798 131.0
38.4143 127.0
38.4488 144.0
38.4832 136.0
38.5177 148.0
38.5522 138.0
38.5866 140.0
38.6211 141.0
38.6556 138.0
38.69 153.0
38.7245 156.0
38.759 166.0
38.7934 176.0
38.8279 156.0
38.8624 151.0
38.8968 191.0
38.9313 178.0
38.9658 178.0
39.0002 177.0
39.0347 202.0
39.0692 259.0
39.1036 216.0
39.1381 285.0
39.1726 297.0
39.207 389.0
39.2415 513.0
39.276 547.0
39.3104 593.0
39.3449 797.0
39.3794 1390.0
39.4138 2298.0
39.4483 3219.0
39.4828 3540.0
39.5172 3300.0
39.5517 3041.0
39.5862 2308.0
39.6206 1678.0
39.6551 1175.0
39.6896 767.0
39.724 510.0
39.7585 427.0
39.793 375.0
39.8274 290.0
39.8619 216.0
39.8964 207.0
39.9308 187.0
39.9653 208.0
39.9998 167.0
40.0342 153.0
40.0687 177.0
40.1032 145.0
40.1376 144.0
40.1721 160.0
40.2066 157.0
40.241 129.0
40.2755 158.0
40.31 119.0
40.3444 149.0
40.3789 154.0
40.4134 154.0
40.4478 135.0
40.4823 154.0
40.5168 164.0
40.5512 135.0
40.5857 162.0
40.6202 151.0
40.6546 167.0
40.6891 157.0
40.7236 162.0
40.758 163.0
40.7925 163.0
40.827 155.0
40.8615 179.0
40.8959 184.0
40.9304 195.0
40.9649 195.0
40.9993 209.0
41.0338 191.0
41.0683 223.0
41.1027 213.0
41.1372 209.0
41.1717 229.0
41.2061 280.0
41.2406 266.0
41.2751 278.0
41.3095 310.0
41.344 403.0
41.3785 657.0
41.4129 969.0
41.4474 1052.0
41.4819 987.0
41.5163 1686.0
41.5508 5230.0
41.5853 52892.0
41.6197 59887.0
41.6542 8251.0
41.6887 23478.0
41.7231 30665.0
41.7576 5354.0
41.7921 1378.0
41.8265 831.0
41.861 605.0
41.8955 454.0
41.9299 399.0
41.9644 364.0
41.9989 313.0
42.0333 273.0
42.0678 205.0
42.1023 197.0
42.1367 222.0
42.1712 198.0
42.2057 171.0
42.2401 176.0
42.2746 164.0
42.3091 166.0
42.3435 153.0
42.378 151.0
42.4125 180.0
42.4469 173.0
42.4814 159.0
42.5159 146.0
42.5503 167.0
42.5848 142.0
42.6193 148.0
42.6537 133.0
42.6882 154.0
42.7227 132.0
42.7571 155.0
42.7916 143.0
42.8261 115.0
42.8605 135.0
42.895 125.0
42.9295 158.0
42.9639 150.0
42.9984 137.0
43.0329 130.0
43.0673 136.0
43.1018 140.0
43.1363 127.0
43.1707 142.0
43.2052 137.0
43.2397 144.0
43.2741 117.0
43.3086 133.0
43.3431 123.0
43.3775 141.0
43.412 119.0
43.4465 113.0
43.4809 126.0
43.5154 151.0
43.5499 143.0
43.5843 143.0
43.6188 124.0
43.6533 123.0
43.6877 155.0
43.7222 145.0
43.7567 128.0
43.7911 142.0
43.8256 128.0
43.8601 137.0
43.8945 140.0
43.929 150.0
43.9635 157.0
43.9979 167.0
44.0324 176.0
44.0669 143.0
44.1013 159.0
44.1358 142.0
44.1703 145.0
44.2047 184.0
44.2392 208.0
44.2737 198.0
44.3081 217.0
44.3426 257.0
44.3771 259.0
44.4116 284.0
44.446 287.0
44.4805 290.0
44.515 243.0
44.5494 201.0
44.5839 200.0
44.6184 171.0
44.6528 172.0
44.6873 143.0
44.7218 159.0
44.7562 161.0
44.7907 149.0
44.8252 134.0
44.8596 129.0
44.8941 139.0
44.9286 116.0
44.963 141.0
44.9975 148.0