Folder: DataAnalysis/data/W6911c/XRD_Omega

Note: data/W6911c/XRD_Omega/W6911c_omega_peaks.TXT
No.	Pos. [記mega]	FWHM Left [記mega]	Area [cts*記mega]	Backgr.[cts]	d-spacing [魔	Height [cts]	Shape Left	Status	Integral Breadth [記mega]	FWHM Right [記mega]	Shape Right	Obs. Lorentz B [記mega]	Obs. Gauss B [記mega]	Instr. Lorentz B [記mega]	Instr. Gauss B [記mega]	Crystallite Size [魔	Micro Strain [%]	Crystallite Size only [魔	Micro Strain only [%]
1	19,8226(1)	0,0997(5)	657,12	58,14	 	5175(23)	0,509(7)	Included	0,126992	 	 	0,069615	0,077701	0,075191	0,063695	-16070,800000	0,111127	2013,355000	0,111140

Note: README.md
# Methods
## RSM analysis

Check out [doc](documentation/RSM.md)

File: w6911c_c-Cr2O3_scan_omega_4deg_step_0.005deg0_2.xy
17.85490 59.0
17.86990 72.0
17.88490 65.0
17.89990 58.0
17.91490 81.0
17.92990 70.0
17.94490 95.0
17.95990 66.0
17.97490 79.0
17.98990 79.0
18.00490 66.0
18.01990 67.0
18.03490 69.0
18.04990 59.0
18.06490 54.0
18.07990 70.0
18.09490 67.0
18.10990 57.0
18.12490 63.0
18.13990 72.0
18.15490 87.0
18.16990 67.0
18.18490 61.0
18.19990 74.0
18.21490 65.0
18.22990 62.0
18.24490 68.0
18.25990 67.0
18.27490 84.0
18.28990 62.0
18.30490 65.0
18.31990 55.0
18.33490 49.0
18.34990 56.0
18.36490 66.0
18.37990 63.0
18.39490 62.0
18.40990 67.0
18.42490 77.0
18.43990 59.0
18.45490 53.0
18.46990 70.0
18.48490 52.0
18.49990 63.0
18.51490 69.0
18.52990 79.0
18.54490 75.0
18.55990 80.0
18.57490 63.0
18.58990 77.0
18.60490 73.0
18.61990 81.0
18.63490 78.0
18.64990 52.0
18.66490 71.0
18.67990 76.0
18.69490 61.0
18.70990 62.0
18.72490 74.0
18.73990 79.0
18.75490 57.0
18.76990 78.0
18.78490 61.0
18.79990 55.0
18.81490 64.0
18.82990 76.0
18.84490 65.0
18.85990 53.0
18.87490 71.0
18.88990 77.0
18.90490 85.0
18.91990 71.0
18.93490 87.0
18.94990 88.0
18.96490 71.0
18.97990 83.0
18.99490 58.0
19.00990 80.0
19.02490 87.0
19.03990 71.0
19.05490 84.0
19.06990 69.0
19.08490 87.0
19.09990 81.0
19.11490 86.0
19.12990 76.0
19.14490 80.0
19.15990 79.0
19.17490 76.0
19.18990 80.0
19.20490 73.0
19.21990 60.0
19.23490 79.0
19.24990 90.0
19.26490 94.0
19.27990 98.0
19.29490 92.0
19.30990 69.0
19.32490 86.0
19.33990 92.0
19.35490 95.0
19.36990 100.0
19.38490 101.0
19.39990 97.0
19.41490 104.0
19.42990 104.0
19.44490 118.0
19.45990 128.0
19.47490 127.0
19.48990 126.0
19.50490 121.0
19.51990 122.0
19.53490 149.0
19.54990 143.0
19.56490 161.0
19.57990 171.0
19.59490 175.0
19.60990 217.0
19.62490 232.0
19.63990 215.0
19.65490 273.0
19.66990 302.0
19.68490 405.0
19.69990 708.0
19.71490 1050.0
19.72990 1287.0
19.74490 1410.0
19.75990 1885.0
19.77490 2798.0
19.78990 4285.0
19.80490 5553.0
19.81990 6609.0
19.83490 6954.0
19.84990 6441.0
19.86490 5798.0
19.87990 4549.0
19.89490 3648.0
19.90990 2612.0
19.92490 1817.0
19.93990 1287.0
19.95490 913.0
19.96990 691.0
19.98490 424.0
19.99990 329.0
20.01490 285.0
20.02990 254.0
20.04490 247.0
20.05990 200.0
20.07490 173.0
20.08990 173.0
20.10490 146.0
20.11990 141.0
20.13490 150.0
20.14990 126.0
20.16490 106.0
20.17990 110.0
20.19490 108.0
20.20990 89.0
20.22490 112.0
20.23990 104.0
20.25490 96.0
20.26990 93.0
20.28490 97.0
20.29990 93.0
20.31490 92.0
20.32990 80.0
20.34490 105.0
20.35990 82.0
20.37490 96.0
20.38990 78.0
20.40490 75.0
20.41990 75.0
20.43490 64.0
20.44990 83.0
20.46490 73.0
20.47990 75.0
20.49490 90.0
20.50990 78.0
20.52490 68.0
20.53990 82.0
20.55490 79.0
20.56990 69.0
20.58490 55.0
20.59990 67.0
20.61490 61.0
20.62990 78.0
20.64490 70.0
20.65990 59.0
20.67490 74.0
20.68990 72.0
20.70490 64.0
20.71990 64.0
20.73490 58.0
20.74990 65.0
20.76490 70.0
20.77990 62.0
20.79490 63.0
20.80990 60.0
20.82490 69.0
20.83990 65.0
20.85490 62.0
20.86990 67.0
20.88490 60.0
20.89990 70.0
20.91490 73.0
20.92990 81.0
20.94490 49.0
20.95990 58.0
20.97490 83.0
20.98990 57.0
21.00490 66.0
21.01990 82.0
21.03490 62.0
21.04990 62.0
21.06490 67.0
21.07990 67.0
21.09490 57.0
21.10990 66.0
21.12490 64.0
21.13990 51.0
21.15490 73.0
21.16990 67.0
21.18490 60.0
21.19990 65.0
21.21490 56.0
21.22990 65.0
21.24490 52.0
21.25990 63.0
21.27490 60.0
21.28990 55.0
21.30490 63.0
21.31990 73.0
21.33490 62.0
21.34990 66.0
21.36490 46.0
21.37990 47.0
21.39490 48.0
21.40990 65.0
21.42490 62.0
21.43990 62.0
21.45490 50.0
21.46990 66.0
21.48490 57.0
21.49990 69.0
21.51490 58.0
21.52990 64.0
21.54490 67.0
21.55990 59.0
21.57490 60.0
21.58990 62.0
21.60490 64.0
21.61990 42.0
21.63490 52.0
21.64990 60.0
21.66490 65.0
21.67990 68.0
21.69490 60.0
21.70990 51.0
21.72490 55.0
21.73990 69.0
21.75490 70.0
21.76990 72.0
21.78490 64.0
21.79990 53.0
21.81490 47.0