Folder: DataAnalysis/data/W6778c/XRD_2ThetaOmega

Note: data/W6778c/XRD_2ThetaOmega/W6778c_peaks.TXT
No.	Label	Pos. [°2Th.]	FWHM Left [°2Th.]	Area calc.	Assignment	h	k	l	Multiplicity	F obs.	F calc.	Area [cts*°2Th.]	Derivation	Backgr.[cts]	d-spacing [Å]	Height [cts]	K-A2 / K-A1 Ratio	Matched	Matched by	Rel. Int. [%]	Source	Status	Integral Breadth [°2Th.]
1	Cr2O3 0 0 6	39,0724(8)	0,364(2)	0,00	 	0	0	6	 	0,000000	0,000000	220,97	Pure KA1	9,62	2,30351	493(3)	0,500	False	 	5,14	Profile fitting	Included	0,448257
2	Al2O3 0 0 6	41,61126(8)	0,0521(2)	0,00	 	0	0	6	 	0,000000	0,000000	480,84	Pure KA1	9,67	2,16864	7784(29)	0,500	False	 	81,13	Profile fitting	Included	0,061771
3	Cr2O3 0 0 12	84,077(4)	0,86(1)	0,00	 	0	0	12	 	0,000000	0,000000	89,75	Pure KA1	12,78	1,15034	79(1)	0,500	False	 	0,82	Profile fitting	Included	1,142108
4	Al2O3 0 0 12	90,67497(8)	0,0717(2)	0,00	 	0	0	12	 	0,000000	0,000000	906,74	Pure KA1	13,16	1,08301	9594(30)	0,500	False	 	100,00	Profile fitting	Included	0,094510

Note: README.md
# Methods
## RSM analysis

Check out [doc](documentation/RSM.md)

File: W6778c_absolute_2th-om_10-130deg_PIXscan_17min_1.xy
10.0035 41.0
10.4072 26.0
10.811 32.0
11.2147 25.0
11.6185 29.0
12.0222 27.0
12.426 18.0
12.8298 13.0
13.2335 27.0
13.6373 21.0
14.041 20.0
14.4448 21.0
14.8485 14.0
15.2523 27.0
15.656 17.0
16.0598 19.0
16.4636 18.0
16.8673 15.0
17.2711 21.0
17.6748 15.0
18.0786 16.0
18.4823 16.0
18.8861 15.0
19.2899 19.0
19.6936 16.0
20.0974 9.0
20.5011 12.0
20.9049 14.0
21.3086 15.0
21.7124 15.0
22.1161 10.0
22.5199 13.0
22.9237 10.0
23.3274 8.0
23.7312 8.0
24.1349 10.0
24.5387 11.0
24.9424 10.0
25.3462 6.0
25.75 5.0
26.1537 11.0
26.5575 11.0
26.9612 6.0
27.365 7.0
27.7687 5.0
28.1725 8.0
28.5762 10.0
28.98 12.0
29.3838 18.0
29.7875 9.0
30.1913 10.0
30.595 5.0
30.9988 11.0
31.4025 8.0
31.8063 7.0
32.2101 8.0
32.6138 18.0
33.0176 7.0
33.4213 7.0
33.8251 7.0
34.2288 4.0
34.6326 12.0
35.0363 10.0
35.4401 8.0
35.8439 7.0
36.2476 14.0
36.6514 14.0
37.0551 9.0
37.4589 27.0
37.8626 17.0
38.2664 21.0
38.6702 58.0
39.0739 727.0
39.4777 70.0
39.8814 24.0
40.2852 18.0
40.6889 17.0
41.0927 18.0
41.4964 95.0
41.9002 55.0
42.304 17.0
42.7077 18.0
43.1115 14.0
43.5152 13.0
43.919 15.0
44.3227 23.0
44.7265 8.0
45.1303 13.0
45.534 10.0
45.9378 7.0
46.3415 13.0
46.7453 11.0
47.149 19.0
47.5528 9.0
47.9565 18.0
48.3603 12.0
48.7641 9.0
49.1678 8.0
49.5716 8.0
49.9753 14.0
50.3791 9.0
50.7828 4.0
51.1866 9.0
51.5903 12.0
51.9941 6.0
52.3979 8.0
52.8016 18.0
53.2054 7.0
53.6091 15.0
54.0129 13.0
54.4166 11.0
54.8204 11.0
55.2242 10.0
55.6279 5.0
56.0317 10.0
56.4354 10.0
56.8392 9.0
57.2429 10.0
57.6467 11.0
58.0504 9.0
58.4542 10.0
58.858 5.0
59.2617 18.0
59.6655 16.0
60.0692 9.0
60.473 14.0
60.8767 9.0
61.2805 13.0
61.6843 9.0
62.088 15.0
62.4918 13.0
62.8955 9.0
63.2993 11.0
63.703 9.0
64.1068 12.0
64.5105 18.0
64.9143 8.0
65.3181 10.0
65.7218 9.0
66.1256 15.0
66.5293 16.0
66.9331 10.0
67.3368 16.0
67.7406 12.0
68.1444 17.0
68.5481 12.0
68.9519 10.0
69.3556 13.0
69.7594 17.0
70.1631 13.0
70.5669 12.0
70.9706 10.0
71.3744 17.0
71.7782 5.0
72.1819 16.0
72.5857 12.0
72.9894 11.0
73.3932 9.0
73.7969 10.0
74.2007 6.0
74.6045 7.0
75.0082 13.0
75.412 13.0
75.8157 16.0
76.2195 13.0
76.6232 14.0
77.027 11.0
77.4307 19.0
77.8345 11.0
78.2383 8.0
78.642 14.0
79.0458 12.0
79.4495 15.0
79.8533 17.0
80.257 14.0
80.6608 12.0
81.0646 15.0
81.4683 10.0
81.8721 15.0
82.2758 15.0
82.6796 17.0
83.0833 21.0
83.4871 34.0
83.8908 99.0
84.2946 116.0
84.6984 63.0
85.1021 29.0
85.5059 21.0
85.9096 48.0
86.3134 14.0
86.7171 32.0
87.1209 10.0
87.5247 9.0
87.9284 11.0
88.3322 20.0
88.7359 21.0
89.1397 17.0
89.5434 27.0
89.9472 30.0
90.3509 74.0
90.7547 1194.0
91.1585 144.0
91.5622 32.0
91.966 26.0
92.3697 18.0
92.7735 23.0
93.1772 10.0
93.581 17.0
93.9848 18.0
94.3885 9.0
94.7923 9.0
95.196 17.0
95.5998 12.0
96.0035 18.0
96.4073 9.0
96.811 14.0
97.2148 13.0
97.6186 11.0
98.0223 9.0
98.4261 14.0
98.8298 14.0
99.2336 16.0
99.6373 6.0
100.041 16.0
100.445 17.0
100.849 9.0
101.252 10.0
101.656 14.0
102.06 14.0
102.464 10.0
102.867 18.0
103.271 14.0
103.675 5.0
104.079 10.0
104.482 11.0
104.886 17.0
105.29 12.0
105.694 7.0
106.097 10.0
106.501 7.0
106.905 13.0
107.309 16.0
107.712 15.0
108.116 13.0
108.52 15.0
108.924 13.0
109.327 14.0
109.731 12.0
110.135 16.0
110.539 12.0
110.943 15.0
111.346 15.0
111.75 11.0
112.154 10.0
112.558 12.0
112.961 11.0
113.365 16.0
113.769 17.0
114.173 19.0
114.576 17.0
114.98 15.0
115.384 14.0
115.788 20.0
116.191 18.0
116.595 17.0
116.999 15.0
117.403 11.0
117.806 13.0
118.21 11.0
118.614 11.0
119.018 15.0
119.421 18.0
119.825 13.0
120.229 15.0
120.633 12.0
121.036 18.0
121.44 18.0
121.844 17.0
122.248 17.0
122.651 12.0
123.055 11.0
123.459 16.0
123.863 18.0
124.266 17.0
124.67 13.0
125.074 22.0
125.478 21.0
125.881 8.0
126.285 13.0
126.689 18.0
127.093 15.0
127.497 11.0
127.9 20.0
128.304 8.0
128.708 14.0
129.112 15.0
129.515 26.0
129.919 19.0
129.998 17.0