Folder: DataAnalysis/data/W6778c/XRD_Omega

Note: data/W6778c/XRD_Omega/W6778c_omega_peaks.TXT
No.	Label	Pos. [記mega]	FWHM Left [記mega]	Area [cts*記mega]	Backgr.[cts]	d-spacing [魔	Height [cts]	Shape Left	Status	Integral Breadth [記mega]	FWHM Right [記mega]	Shape Right	Obs. Lorentz B [記mega]	Obs. Gauss B [記mega]	Instr. Lorentz B [記mega]	Instr. Gauss B [記mega]	Crystallite Size [魔	Micro Strain [%]	Crystallite Size only [魔	Micro Strain only [%]
1	Cr2O3 0 0 6	19,5303(2)	0,408(2)	5385,43	562,04	 	8407(55)	1,00(1)	Included	0,640582	 	 	0,637576	0,010818	0,075229	0,063728	159,274300	-0,159223	159,269300	1,425758

Note: README.md
# Methods
## RSM analysis

Check out [doc](documentation/RSM.md)

File: W6778c_Cr2O3_scan_omega_2deg_step_0.002deg0_9.xy
18.52340 559.0
18.53140 608.0
18.53940 589.0
18.54740 552.0
18.55540 593.0
18.56340 592.0
18.57140 632.0
18.57940 579.0
18.58740 591.0
18.59540 596.0
18.60340 616.0
18.61140 627.0
18.61940 589.0
18.62740 648.0
18.63540 631.0
18.64340 595.0
18.65140 675.0
18.65940 613.0
18.66740 667.0
18.67540 671.0
18.68340 733.0
18.69140 639.0
18.69940 741.0
18.70740 701.0
18.71540 669.0
18.72340 732.0
18.73140 717.0
18.73940 713.0
18.74740 780.0
18.75540 741.0
18.76340 776.0
18.77140 754.0
18.77940 792.0
18.78740 799.0
18.79540 747.0
18.80340 844.0
18.81140 844.0
18.81940 844.0
18.82740 827.0
18.83540 888.0
18.84340 860.0
18.85140 842.0
18.85940 922.0
18.86740 866.0
18.87540 922.0
18.88340 980.0
18.89140 962.0
18.89940 1016.0
18.90740 1034.0
18.91540 1016.0
18.92340 1127.0
18.93140 1154.0
18.93940 1157.0
18.94740 1154.0
18.95540 1153.0
18.96340 1206.0
18.97140 1245.0
18.97940 1274.0
18.98740 1334.0
18.99540 1321.0
19.00340 1339.0
19.01140 1425.0
19.01940 1415.0
19.02740 1464.0
19.03540 1584.0
19.04340 1613.0
19.05140 1542.0
19.05940 1559.0
19.06740 1713.0
19.07540 1687.0
19.08340 1720.0
19.09140 1836.0
19.09940 1972.0
19.10740 1927.0
19.11540 2081.0
19.12340 2209.0
19.13140 2230.0
19.13940 2165.0
19.14740 2364.0
19.15540 2346.0
19.16340 2452.0
19.17140 2523.0
19.17940 2572.0
19.18740 2770.0
19.19540 2714.0
19.20340 2837.0
19.21140 2962.0
19.21940 3127.0
19.22740 3179.0
19.23540 3360.0
19.24340 3450.0
19.25140 3653.0
19.25940 3773.0
19.26740 3888.0
19.27540 4097.0
19.28340 4249.0
19.29140 4414.0
19.29940 4575.0
19.30740 4904.0
19.31540 5005.0
19.32340 5369.0
19.33140 5461.0
19.33940 5772.0
19.34740 6193.0
19.35540 6380.0
19.36340 6651.0
19.37140 7095.0
19.37940 7539.0
19.38740 7491.0
19.39540 7848.0
19.40340 8372.0
19.41140 8819.0
19.41940 9298.0
19.42740 9795.0
19.43540 10599.0
19.44340 11019.0
19.45140 11757.0
19.45940 12425.0
19.46740 12706.0
19.47540 13001.0
19.48340 12620.0
19.49140 12989.0
19.49940 13027.0
19.50740 13441.0
19.51540 13425.0
19.52340 12991.0
19.53140 12486.0
19.53940 12452.0
19.54740 12267.0
19.55540 11822.0
19.56340 11607.0
19.57140 11602.0
19.57940 11241.0
19.58740 10959.0
19.59540 10926.0
19.60340 10537.0
19.61140 10371.0
19.61940 10124.0
19.62740 9924.0
19.63540 9616.0
19.64340 9560.0
19.65140 9288.0
19.65940 8997.0
19.66740 8904.0
19.67540 8504.0
19.68340 8362.0
19.69140 8230.0
19.69940 7958.0
19.70740 7709.0
19.71540 7526.0
19.72340 7365.0
19.73140 7194.0
19.73940 6923.0
19.74740 7015.0
19.75540 6653.0
19.76340 6488.0
19.77140 6285.0
19.77940 5965.0
19.78740 5824.0
19.79540 5696.0
19.80340 5528.0
19.81140 5313.0
19.81940 5138.0
19.82740 4970.0
19.83540 4799.0
19.84340 4671.0
19.85140 4645.0
19.85940 4457.0
19.86740 4250.0
19.87540 4118.0
19.88340 4060.0
19.89140 3704.0
19.89940 3696.0
19.90740 3633.0
19.91540 3547.0
19.92340 3345.0
19.93140 3302.0
19.93940 3208.0
19.94740 3121.0
19.95540 3001.0
19.96340 2921.0
19.97140 2725.0
19.97940 2624.0
19.98740 2543.0
19.99540 2438.0
20.00340 2453.0
20.01140 2296.0
20.01940 2373.0
20.02740 2230.0
20.03540 2212.0
20.04340 2158.0
20.05140 2069.0
20.05940 1999.0
20.06740 1947.0
20.07540 1911.0
20.08340 1762.0
20.09140 1721.0
20.09940 1793.0
20.10740 1714.0
20.11540 1679.0
20.12340 1613.0
20.13140 1575.0
20.13940 1426.0
20.14740 1458.0
20.15540 1510.0
20.16340 1398.0
20.17140 1398.0
20.17940 1307.0
20.18740 1314.0
20.19540 1283.0
20.20340 1210.0
20.21140 1135.0
20.21940 1116.0
20.22740 1133.0
20.23540 1126.0
20.24340 1052.0
20.25140 1027.0
20.25940 1042.0
20.26740 1027.0
20.27540 980.0
20.28340 905.0
20.29140 963.0
20.29940 914.0
20.30740 907.0
20.31540 924.0
20.32340 868.0
20.33140 884.0
20.33940 809.0
20.34740 803.0
20.35540 848.0
20.36340 793.0
20.37140 800.0
20.37940 784.0
20.38740 758.0
20.39540 723.0
20.40340 743.0
20.41140 671.0
20.41940 758.0
20.42740 692.0
20.43540 685.0
20.44340 728.0
20.45140 675.0
20.45940 673.0
20.46740 661.0
20.47540 631.0
20.48340 657.0
20.49140 613.0
20.49940 639.0
20.50740 565.0