Folder: DataAnalysis/data/W6957m/XRD_2ThetaOmega

Note: README.md
# Methods
## RSM analysis

Check out [doc](documentation/RSM.md)

File: m_scan_2th-om_10-130deg_PIXscan_17min_C1.xy
10.0035 37.0
10.4072 44.0
10.811 47.0
11.2147 33.0
11.6185 44.0
12.0222 27.0
12.426 28.0
12.8298 37.0
13.2335 49.0
13.6373 44.0
14.041 29.0
14.4448 32.0
14.8485 30.0
15.2523 32.0
15.656 21.0
16.0598 32.0
16.4636 38.0
16.8673 22.0
17.2711 26.0
17.6748 29.0
18.0786 31.0
18.4823 29.0
18.8861 16.0
19.2899 30.0
19.6936 25.0
20.0974 30.0
20.5011 24.0
20.9049 26.0
21.3086 22.0
21.7124 31.0
22.1161 25.0
22.5199 25.0
22.9237 25.0
23.3274 21.0
23.7312 21.0
24.1349 19.0
24.5387 21.0
24.9424 29.0
25.3462 23.0
25.75 26.0
26.1537 15.0
26.5575 18.0
26.9612 25.0
27.365 25.0
27.7687 22.0
28.1725 16.0
28.5762 25.0
28.98 16.0
29.3838 21.0
29.7875 24.0
30.1913 20.0
30.595 25.0
30.9988 20.0
31.4025 14.0
31.8063 18.0
32.2101 20.0
32.6138 25.0
33.0176 20.0
33.4213 23.0
33.8251 10.0
34.2288 34.0
34.6326 23.0
35.0363 21.0
35.4401 20.0
35.8439 22.0
36.2476 26.0
36.6514 16.0
37.0551 13.0
37.4589 11.0
37.8626 18.0
38.2664 27.0
38.6702 26.0
39.0739 21.0
39.4777 17.0
39.8814 21.0
40.2852 21.0
40.6889 23.0
41.0927 23.0
41.4964 24.0
41.9002 21.0
42.304 23.0
42.7077 15.0
43.1115 28.0
43.5152 22.0
43.919 29.0
44.3227 39.0
44.7265 19.0
45.1303 15.0
45.534 20.0
45.9378 15.0
46.3415 20.0
46.7453 17.0
47.149 24.0
47.5528 13.0
47.9565 19.0
48.3603 22.0
48.7641 21.0
49.1678 33.0
49.5716 26.0
49.9753 28.0
50.3791 26.0
50.7828 15.0
51.1866 23.0
51.5903 27.0
51.9941 24.0
52.3979 21.0
52.8016 33.0
53.2054 24.0
53.6091 32.0
54.0129 26.0
54.4166 22.0
54.8204 24.0
55.2242 25.0
55.6279 21.0
56.0317 21.0
56.4354 21.0
56.8392 35.0
57.2429 30.0
57.6467 34.0
58.0504 28.0
58.4542 27.0
58.858 34.0
59.2617 14.0
59.6655 29.0
60.0692 27.0
60.473 31.0
60.8767 150.0
61.2805 45.0
61.6843 41.0
62.088 23.0
62.4918 33.0
62.8955 34.0
63.2993 42.0
63.703 63.0
64.1068 127.0
64.5105 1124.0
64.9143 5928.0
65.3181 211.0
65.7218 79.0
66.1256 57.0
66.5293 80.0
66.9331 88.0
67.3368 133.0
67.7406 433.0
68.1444 72683.0
68.5481 721.0
68.9519 155.0
69.3556 83.0
69.7594 52.0
70.1631 39.0
70.5669 35.0
70.9706 26.0
71.3744 27.0
71.7782 32.0
72.1819 36.0
72.5857 23.0
72.9894 16.0
73.3932 30.0
73.7969 23.0
74.2007 28.0
74.6045 35.0
75.0082 25.0
75.412 24.0
75.8157 26.0
76.2195 26.0
76.6232 33.0
77.027 22.0
77.4307 34.0
77.8345 23.0
78.2383 22.0
78.642 27.0
79.0458 27.0
79.4495 35.0
79.8533 21.0
80.257 23.0
80.6608 30.0
81.0646 25.0
81.4683 29.0
81.8721 24.0
82.2758 34.0
82.6796 23.0
83.0833 27.0
83.4871 22.0
83.8908 32.0
84.2946 42.0
84.6984 32.0
85.1021 31.0
85.5059 22.0
85.9096 31.0
86.3134 15.0
86.7171 27.0
87.1209 33.0
87.5247 34.0
87.9284 25.0
88.3322 18.0
88.7359 36.0
89.1397 24.0
89.5434 25.0
89.9472 30.0
90.3509 29.0
90.7547 28.0
91.1585 26.0
91.5622 35.0
91.966 31.0
92.3697 26.0
92.7735 31.0
93.1772 31.0
93.581 24.0
93.9848 27.0
94.3885 28.0
94.7923 29.0
95.196 29.0
95.5998 18.0
96.0035 23.0
96.4073 25.0
96.811 24.0
97.2148 26.0
97.6186 23.0
98.0223 22.0
98.4261 25.0
98.8298 26.0
99.2336 34.0
99.6373 30.0
100.041 39.0
100.445 15.0
100.849 14.0
101.252 33.0
101.656 28.0
102.06 34.0
102.464 26.0
102.867 27.0
103.271 30.0
103.675 28.0
104.079 19.0
104.482 39.0
104.886 31.0
105.29 25.0
105.694 23.0
106.097 33.0
106.501 31.0
106.905 29.0
107.309 26.0
107.712 31.0
108.116 31.0
108.52 23.0
108.924 24.0
109.327 24.0
109.731 24.0
110.135 23.0
110.539 30.0
110.943 34.0
111.346 34.0
111.75 25.0
112.154 27.0
112.558 30.0
112.961 38.0
113.365 21.0
113.769 30.0
114.173 38.0
114.576 32.0
114.98 22.0
115.384 35.0
115.788 36.0
116.191 36.0
116.595 26.0
116.999 37.0
117.403 23.0
117.806 33.0
118.21 29.0
118.614 37.0
119.018 33.0
119.421 34.0
119.825 34.0
120.229 26.0
120.633 22.0
121.036 21.0
121.44 30.0
121.844 25.0
122.248 27.0
122.651 34.0
123.055 33.0
123.459 29.0
123.863 34.0
124.266 27.0
124.67 28.0
125.074 36.0
125.478 26.0
125.881 30.0
126.285 32.0
126.689 20.0
127.093 33.0
127.497 28.0
127.9 21.0
128.304 21.0
128.708 32.0
129.112 23.0
129.515 27.0
129.919 26.0
129.998 34.0