Folder: DataAnalysis/data/W6855r/XRD_2ThetaOmega

Note: data/W6855r/XRD_2ThetaOmega/W6855r_peaks.TXT
No.	Label	Pos. [°2Th.]	FWHM Left [°2Th.]	Area [cts*°2Th.]	Backgr.[cts]	d-spacing [Å]	Height [cts]	Shape Left	Status	Integral Breadth [°2Th.]	FWHM Right [°2Th.]	Shape Right	Obs. Lorentz B [°2Th.]	Obs. Gauss B [°2Th.]	Instr. Lorentz B [°2Th.]	Instr. Gauss B [°2Th.]	Crystallite Size [Å]	Micro Strain [%]	Crystallite Size only [Å]	Micro Strain only [%]
1	Cr2O3 0 1 2	24(1)	1(1)	21,77	23,31	3,65847	25(48)	1(4)	Included	0,861847	 	 	0,857804	0,014555	0,074667	0,063253	115,297800	-0,124703	115,295900	1,586556
2	Al2O3 0 1 2	25,52164(4)	0,04847(7)	2526,98	17,65	3,48738	44854(76)	0,261(2)	Included	0,056338	 	 	0,016518	0,045137	0,074548	0,063152	-1559,615000	-0,085095	28617,050000	0,006093

Note: README.md
# Methods
## RSM analysis

Check out [doc](documentation/RSM.md)

File: W6855r_absolute_2th-om_10-130deg_PIXscan_17min_7.xy
10.0035 17.0
10.4072 28.0
10.811 25.0
11.2147 18.0
11.6185 18.0
12.0222 20.0
12.426 18.0
12.8298 12.0
13.2335 29.0
13.6373 22.0
14.041 18.0
14.4448 10.0
14.8485 18.0
15.2523 15.0
15.656 13.0
16.0598 16.0
16.4636 22.0
16.8673 8.0
17.2711 16.0
17.6748 18.0
18.0786 22.0
18.4823 15.0
18.8861 14.0
19.2899 14.0
19.6936 7.0
20.0974 14.0
20.5011 19.0
20.9049 21.0
21.3086 13.0
21.7124 13.0
22.1161 15.0
22.5199 20.0
22.9237 10.0
23.3274 18.0
23.7312 23.0
24.1349 46.0
24.5387 53.0
24.9424 37.0
25.3462 165.0
25.75 326.0
26.1537 82.0
26.5575 39.0
26.9612 17.0
27.365 15.0
27.7687 17.0
28.1725 10.0
28.5762 13.0
28.98 12.0
29.3838 18.0
29.7875 8.0
30.1913 14.0
30.595 14.0
30.9988 14.0
31.4025 10.0
31.8063 16.0
32.2101 15.0
32.6138 9.0
33.0176 10.0
33.4213 16.0
33.8251 13.0
34.2288 13.0
34.6326 11.0
35.0363 12.0
35.4401 17.0
35.8439 16.0
36.2476 13.0
36.6514 7.0
37.0551 7.0
37.4589 16.0
37.8626 5.0
38.2664 10.0
38.6702 14.0
39.0739 14.0
39.4777 15.0
39.8814 15.0
40.2852 17.0
40.6889 12.0
41.0927 9.0
41.4964 10.0
41.9002 8.0
42.304 7.0
42.7077 11.0
43.1115 13.0
43.5152 10.0
43.919 15.0
44.3227 26.0
44.7265 8.0
45.1303 10.0
45.534 16.0
45.9378 13.0
46.3415 12.0
46.7453 8.0
47.149 59.0
47.5528 18.0
47.9565 14.0
48.3603 16.0
48.7641 17.0
49.1678 10.0
49.5716 23.0
49.9753 38.0
50.3791 26.0
50.7828 20.0
51.1866 18.0
51.5903 29.0
51.9941 67.0
52.3979 906.0
52.8016 379.0
53.2054 107.0
53.6091 66.0
54.0129 42.0
54.4166 30.0
54.8204 13.0
55.2242 23.0
55.6279 23.0
56.0317 12.0
56.4354 14.0
56.8392 9.0
57.2429 11.0
57.6467 12.0
58.0504 16.0
58.4542 19.0
58.858 16.0
59.2617 17.0
59.6655 11.0
60.0692 8.0
60.473 9.0
60.8767 10.0
61.2805 18.0
61.6843 7.0
62.088 10.0
62.4918 17.0
62.8955 7.0
63.2993 5.0
63.703 7.0
64.1068 11.0
64.5105 9.0
64.9143 17.0
65.3181 14.0
65.7218 16.0
66.1256 7.0
66.5293 10.0
66.9331 12.0
67.3368 12.0
67.7406 6.0
68.1444 13.0
68.5481 16.0
68.9519 15.0
69.3556 9.0
69.7594 10.0
70.1631 13.0
70.5669 12.0
70.9706 17.0
71.3744 8.0
71.7782 14.0
72.1819 6.0
72.5857 11.0
72.9894 13.0
73.3932 13.0
73.7969 13.0
74.2007 12.0
74.6045 10.0
75.0082 12.0
75.412 6.0
75.8157 20.0
76.2195 12.0
76.6232 18.0
77.027 9.0
77.4307 9.0
77.8345 14.0
78.2383 10.0
78.642 10.0
79.0458 16.0
79.4495 12.0
79.8533 9.0
80.257 21.0
80.6608 16.0
81.0646 14.0
81.4683 6.0
81.8721 21.0
82.2758 11.0
82.6796 16.0
83.0833 87.0
83.4871 176.0
83.8908 21.0
84.2946 16.0
84.6984 7.0
85.1021 15.0
85.5059 11.0
85.9096 27.0
86.3134 10.0
86.7171 13.0
87.1209 16.0
87.5247 7.0
87.9284 24.0
88.3322 11.0
88.7359 11.0
89.1397 9.0
89.5434 13.0
89.9472 13.0
90.3509 12.0
90.7547 15.0
91.1585 7.0
91.5622 15.0
91.966 13.0
92.3697 19.0
92.7735 10.0
93.1772 11.0
93.581 12.0
93.9848 8.0
94.3885 13.0
94.7923 12.0
95.196 8.0
95.5998 10.0
96.0035 12.0
96.4073 7.0
96.811 12.0
97.2148 15.0
97.6186 12.0
98.0223 9.0
98.4261 16.0
98.8298 15.0
99.2336 13.0
99.6373 12.0
100.041 9.0
100.445 14.0
100.849 15.0
101.252 12.0
101.656 10.0
102.06 11.0
102.464 6.0
102.867 8.0
103.271 16.0
103.675 13.0
104.079 17.0
104.482 13.0
104.886 9.0
105.29 10.0
105.694 16.0
106.097 14.0
106.501 13.0
106.905 12.0
107.309 14.0
107.712 11.0
108.116 9.0
108.52 11.0
108.924 18.0
109.327 16.0
109.731 7.0
110.135 10.0
110.539 11.0
110.943 12.0
111.346 21.0
111.75 15.0
112.154 9.0
112.558 8.0
112.961 14.0
113.365 14.0
113.769 21.0
114.173 15.0
114.576 13.0
114.98 14.0
115.384 13.0
115.788 12.0
116.191 21.0
116.595 9.0
116.999 12.0
117.403 13.0
117.806 13.0
118.21 12.0
118.614 14.0
119.018 9.0
119.421 9.0
119.825 11.0
120.229 11.0
120.633 20.0
121.036 20.0
121.44 15.0
121.844 10.0
122.248 12.0
122.651 19.0
123.055 19.0
123.459 19.0
123.863 33.0
124.266 102.0
124.67 1665.0
125.074 1479.0
125.478 81.0
125.881 42.0
126.285 32.0
126.689 18.0
127.093 29.0
127.497 17.0
127.9 14.0
128.304 19.0
128.708 17.0
129.112 14.0
129.515 27.0
129.919 13.0
129.998 22.0