Folder: DataAnalysis/data/W6816c2/XRD_Omega

Note: data/W6816c2/XRD_Omega/W6816c2_omega_peak.TXT
No.	Label	Pos. [記mega]	FWHM Left [記mega]	Area calc.	Assignment	h	k	l	Multiplicity	F obs.	F calc.	Area [cts*記mega]	Derivation	Backgr.[cts]	d-spacing [魔	Height [cts]	K-A2 / K-A1 Ratio	Matched	Matched by	Rel. Int. [%]	Source	Status	Integral Breadth [記mega]
1	Cr2O3 0 0 6	19,3403(3)	0,218(1)	0,00	 	 	 	 	 	0,000000	0,000000	444,98	 	237,17	 	1299(8)	 	False	 	100,00	Profile fitting	Included	0,342580

Note: README.md
# Methods
## RSM analysis

Check out [doc](documentation/RSM.md)

File: W6816c2_Cr2O3_scan_omega_2deg_step_0.002deg0_3_new.xy
18.35930 189.0
18.36730 189.0
18.37530 204.0
18.38330 179.0
18.39130 175.0
18.39930 192.0
18.40730 169.0
18.41530 174.0
18.42330 192.0
18.43130 166.0
18.43930 178.0
18.44730 206.0
18.45530 218.0
18.46330 182.0
18.47130 198.0
18.47930 212.0
18.48730 208.0
18.49530 202.0
18.50330 193.0
18.51130 206.0
18.51930 193.0
18.52730 201.0
18.53530 238.0
18.54330 195.0
18.55130 230.0
18.55930 186.0
18.56730 190.0
18.57530 205.0
18.58330 222.0
18.59130 181.0
18.59930 220.0
18.60730 222.0
18.61530 243.0
18.62330 222.0
18.63130 248.0
18.63930 223.0
18.64730 222.0
18.65530 222.0
18.66330 208.0
18.67130 230.0
18.67930 227.0
18.68730 236.0
18.69530 228.0
18.70330 231.0
18.71130 272.0
18.71930 259.0
18.72730 257.0
18.73530 244.0
18.74330 224.0
18.75130 278.0
18.75930 224.0
18.76730 218.0
18.77530 282.0
18.78330 247.0
18.79130 280.0
18.79930 290.0
18.80730 284.0
18.81530 269.0
18.82330 304.0
18.83130 284.0
18.83930 311.0
18.84730 329.0
18.85530 337.0
18.86330 317.0
18.87130 318.0
18.87930 317.0
18.88730 339.0
18.89530 323.0
18.90330 361.0
18.91130 344.0
18.91930 347.0
18.92730 332.0
18.93530 387.0
18.94330 347.0
18.95130 361.0
18.95930 387.0
18.96730 377.0
18.97530 399.0
18.98330 401.0
18.99130 387.0
18.99930 456.0
19.00730 458.0
19.01530 445.0
19.02330 442.0
19.03130 495.0
19.03930 485.0
19.04730 485.0
19.05530 478.0
19.06330 447.0
19.07130 493.0
19.07930 550.0
19.08730 548.0
19.09530 570.0
19.10330 614.0
19.11130 611.0
19.11930 696.0
19.12730 692.0
19.13530 684.0
19.14330 668.0
19.15130 728.0
19.15930 725.0
19.16730 780.0
19.17530 778.0
19.18330 868.0
19.19130 870.0
19.19930 955.0
19.20730 903.0
19.21530 1011.0
19.22330 1079.0
19.23130 1059.0
19.23930 1204.0
19.24730 1199.0
19.25530 1194.0
19.26330 1268.0
19.27130 1413.0
19.27930 1410.0
19.28730 1514.0
19.29530 1653.0
19.30330 1618.0
19.31130 1865.0
19.31930 1881.0
19.32730 1843.0
19.33530 1982.0
19.34330 2118.0
19.35130 2062.0
19.35930 2149.0
19.36730 2158.0
19.37530 2148.0
19.38330 2031.0
19.39130 1890.0
19.39930 1921.0
19.40730 1888.0
19.41530 1836.0
19.42330 1698.0
19.43130 1582.0
19.43930 1470.0
19.44730 1407.0
19.45530 1339.0
19.46330 1188.0
19.47130 1149.0
19.47930 1114.0
19.48730 1045.0
19.49530 1010.0
19.50330 891.0
19.51130 925.0
19.51930 824.0
19.52730 742.0
19.53530 741.0
19.54330 695.0
19.55130 722.0
19.55930 646.0
19.56730 553.0
19.57530 604.0
19.58330 612.0
19.59130 544.0
19.59930 490.0
19.60730 523.0
19.61530 429.0
19.62330 490.0
19.63130 485.0
19.63930 425.0
19.64730 416.0
19.65530 486.0
19.66330 360.0
19.67130 373.0
19.67930 379.0
19.68730 348.0
19.69530 367.0
19.70330 342.0
19.71130 397.0
19.71930 395.0
19.72730 479.0
19.73530 548.0
19.74330 600.0
19.75130 624.0
19.75930 561.0
19.76730 506.0
19.77530 484.0
19.78330 403.0
19.79130 417.0
19.79930 376.0
19.80730 387.0
19.81530 410.0
19.82330 363.0
19.83130 328.0
19.83930 351.0
19.84730 297.0
19.85530 349.0
19.86330 305.0
19.87130 309.0
19.87930 313.0
19.88730 316.0
19.89530 345.0
19.90330 325.0
19.91130 320.0
19.91930 263.0
19.92730 286.0
19.93530 254.0
19.94330 220.0
19.95130 267.0
19.95930 233.0
19.96730 201.0
19.97530 201.0
19.98330 221.0
19.99130 241.0
19.99930 204.0
20.00730 211.0
20.01530 206.0
20.02330 231.0
20.03130 182.0
20.03930 221.0
20.04730 204.0
20.05530 177.0
20.06330 228.0
20.07130 211.0
20.07930 178.0
20.08730 201.0
20.09530 164.0
20.10330 195.0
20.11130 194.0
20.11930 194.0
20.12730 191.0
20.13530 180.0
20.14330 183.0
20.15130 179.0
20.15930 186.0
20.16730 197.0
20.17530 180.0
20.18330 189.0
20.19130 158.0
20.19930 181.0
20.20730 178.0
20.21530 188.0
20.22330 194.0
20.23130 177.0
20.23930 168.0
20.24730 164.0
20.25530 176.0
20.26330 168.0
20.27130 189.0
20.27930 159.0
20.28730 166.0
20.29530 198.0
20.30330 171.0
20.31130 170.0
20.31930 168.0
20.32730 177.0
20.33530 207.0
20.34330 178.0

File: W6816c2_Omega-Scan_2deg_0.002_0_7.xy
18.75230 219.0
18.76030 226.0
18.76830 240.0
18.77630 210.0
18.78430 225.0
18.79230 240.0
18.80030 223.0
18.80830 249.0
18.81630 193.0
18.82430 229.0
18.83230 236.0
18.84030 243.0
18.84830 223.0
18.85630 230.0
18.86430 240.0
18.87230 235.0
18.88030 248.0
18.88830 260.0
18.89630 233.0
18.90430 291.0
18.91230 244.0
18.92030 243.0
18.92830 258.0
18.93630 269.0
18.94430 257.0
18.95230 255.0
18.96030 268.0
18.96830 311.0
18.97630 305.0
18.98430 310.0
18.99230 299.0
19.00030 286.0
19.00830 327.0
19.01630 324.0
19.02430 318.0
19.03230 332.0
19.04030 350.0
19.04830 344.0
19.05630 374.0
19.06430 409.0
19.07230 386.0
19.08030 468.0
19.08830 498.0
19.09630 520.0
19.10430 545.0
19.11230 589.0
19.12030 621.0
19.12830 641.0
19.13630 648.0
19.14430 707.0
19.15230 724.0
19.16030 763.0
19.16830 798.0
19.17630 824.0
19.18430 832.0
19.19230 884.0
19.20030 939.0
19.20830 1029.0
19.21630 1013.0
19.22430 1070.0
19.23230 1156.0
19.24030 1114.0
19.24830 1196.0
19.25630 1229.0
19.26430 1362.0
19.27230 1381.0
19.28030 1470.0
19.28830 1613.0
19.29630 1666.0
19.30430 1663.0
19.31230 1809.0
19.32030 1874.0
19.32830 2013.0
19.33630 2027.0
19.34430 2080.0
19.35230 2073.0
19.36030 2151.0
19.36830 2188.0
19.37630 2071.0
19.38430 2083.0
19.39230 2000.0
19.40030 1930.0
19.40830 1856.0
19.41630 1753.0
19.42430 1757.0
19.43230 1614.0
19.44030 1460.0
19.44830 1373.0
19.45630 1372.0
19.46430 1261.0
19.47230 1266.0
19.48030 1132.0
19.48830 1044.0
19.49630 1059.0
19.50430 900.0
19.51230 858.0
19.52030 839.0
19.52830 759.0
19.53630 745.0
19.54430 704.0
19.55230 696.0
19.56030 642.0
19.56830 592.0
19.57630 566.0
19.58430 543.0
19.59230 496.0
19.60030 545.0
19.60830 494.0
19.61630 458.0
19.62430 460.0
19.63230 444.0
19.64030 453.0
19.64830 446.0
19.65630 418.0
19.66430 407.0
19.67230 405.0
19.68030 442.0
19.68830 397.0
19.69630 402.0
19.70430 377.0
19.71230 389.0
19.72030 400.0
19.72830 451.0
19.73630 590.0
19.74430 624.0
19.75230 601.0
19.76030 574.0
19.76830 507.0
19.77630 411.0
19.78430 448.0
19.79230 377.0
19.80030 413.0
19.80830 405.0
19.81630 371.0
19.82430 367.0
19.83230 361.0
19.84030 368.0
19.84830 335.0
19.85630 317.0
19.86430 324.0
19.87230 337.0
19.88030 334.0
19.88830 329.0
19.89630 303.0
19.90430 344.0
19.91230 326.0
19.92030 276.0
19.92830 300.0
19.93630 245.0
19.94430 279.0
19.95230 284.0
19.96030 250.0
19.96830 239.0
19.97630 274.0
19.98430 258.0
19.99230 233.0
20.00030 245.0
20.00830 235.0
20.01630 235.0
20.02430 234.0
20.03230 224.0
20.04030 228.0
20.04830 236.0
20.05630 248.0
20.06430 230.0
20.07230 231.0
20.08030 257.0
20.08830 245.0
20.09630 251.0
20.10430 235.0
20.11230 206.0
20.12030 210.0
20.12830 244.0
20.13630 239.0
20.14430 250.0
20.15230 231.0
20.16030 240.0
20.16830 217.0
20.17630 229.0
20.18430 209.0
20.19230 226.0
20.20030 225.0
20.20830 263.0
20.21630 264.0
20.22430 262.0
20.23230 273.0
20.24030 253.0
20.24830 224.0
20.25630 213.0
20.26430 249.0
20.27230 259.0
20.28030 249.0
20.28830 244.0
20.29630 244.0
20.30430 268.0
20.31230 252.0
20.32030 256.0
20.32830 246.0
20.33630 251.0
20.34430 250.0
20.35230 212.0
20.36030 218.0
20.36830 181.0
20.37630 160.0
20.38430 180.0
20.39230 196.0
20.40030 171.0
20.40830 163.0
20.41630 174.0
20.42430 181.0
20.43230 203.0
20.44030 197.0
20.44830 191.0
20.45630 169.0
20.46430 167.0
20.47230 181.0
20.48030 191.0
20.48830 169.0
20.49630 173.0
20.50430 148.0
20.51230 174.0
20.52030 161.0
20.52830 188.0
20.53630 190.0
20.54430 171.0
20.55230 175.0
20.56030 171.0
20.56830 167.0
20.57630 147.0
20.58430 164.0
20.59230 137.0
20.60030 186.0
20.60830 174.0
20.61630 171.0
20.62430 145.0
20.63230 151.0
20.64030 168.0
20.64830 173.0
20.65630 188.0
20.66430 208.0
20.67230 162.0
20.68030 176.0
20.68830 207.0
20.69630 166.0
20.70430 163.0
20.71230 195.0
20.72030 195.0
20.72830 208.0
20.73630 160.0