Folder: DataAnalysis/data/W6716/XRD_Omega

Note: data/W6716/XRD_Omega/W6716_omega_peaks.TXT
No.	Label	Pos. [記mega]	FWHM Left [記mega]	Area [cts*記mega]	Backgr.[cts]	d-spacing [魔	Height [cts]	Shape Left	Status	Integral Breadth [記mega]	FWHM Right [記mega]	Shape Right	Obs. Lorentz B [記mega]	Obs. Gauss B [記mega]	Instr. Lorentz B [記mega]	Instr. Gauss B [記mega]	Crystallite Size [魔	Micro Strain [%]	Crystallite Size only [魔	Micro Strain only [%]
1	Cr2O3 3 0 0	31,7026(3)	0,605(1)	5602,38	2338,59	 	8575(29)	0,05(1)	Included	0,653303	 	 	0,036577	0,631237	0,074098	0,062772	-2445,477000	0,965223	146,071600	0,965331

Note: README.md
# Methods
## RSM analysis

Check out [doc](documentation/RSM.md)

File: W6716_Cr2O3_scan_omega_2deg_step_0.002deg0_2.xy
30.70410 625.0
30.71210 652.0
30.72010 664.0
30.72810 633.0
30.73610 672.0
30.74410 688.0
30.75210 702.0
30.76010 741.0
30.76810 718.0
30.77610 743.0
30.78410 772.0
30.79210 817.0
30.80010 829.0
30.80810 891.0
30.81610 833.0
30.82410 866.0
30.83210 885.0
30.84010 923.0
30.84810 937.0
30.85610 963.0
30.86410 979.0
30.87210 1007.0
30.88010 1023.0
30.88810 1097.0
30.89610 1037.0
30.90410 1111.0
30.91210 1086.0
30.92010 1135.0
30.92810 1142.0
30.93610 1229.0
30.94410 1274.0
30.95210 1214.0
30.96010 1328.0
30.96810 1302.0
30.97610 1314.0
30.98410 1389.0
30.99210 1428.0
31.00010 1401.0
31.00810 1522.0
31.01610 1575.0
31.02410 1590.0
31.03210 1597.0
31.04010 1628.0
31.04810 1757.0
31.05610 1704.0
31.06410 1840.0
31.07210 1939.0
31.08010 1964.0
31.08810 1920.0
31.09610 2121.0
31.10410 2120.0
31.11210 2255.0
31.12010 2229.0
31.12810 2285.0
31.13610 2371.0
31.14410 2539.0
31.15210 2628.0
31.16010 2680.0
31.16810 2778.0
31.17610 2871.0
31.18410 2879.0
31.19210 3015.0
31.20010 3073.0
31.20810 3202.0
31.21610 3424.0
31.22410 3476.0
31.23210 3609.0
31.24010 3664.0
31.24810 3875.0
31.25610 3925.0
31.26410 4262.0
31.27210 4354.0
31.28010 4453.0
31.28810 4557.0
31.29610 4686.0
31.30410 4968.0
31.31210 5089.0
31.32010 5325.0
31.32810 5512.0
31.33610 5778.0
31.34410 5885.0
31.35210 6133.0
31.36010 6430.0
31.36810 6511.0
31.37610 6754.0
31.38410 7060.0
31.39210 7286.0
31.40010 7588.0
31.40810 7704.0
31.41610 7969.0
31.42410 8373.0
31.43210 8689.0
31.44010 8887.0
31.44810 9201.0
31.45610 9479.0
31.46410 9696.0
31.47210 9901.0
31.48010 10185.0
31.48810 10704.0
31.49610 10912.0
31.50410 10886.0
31.51210 11298.0
31.52010 11548.0
31.52810 11736.0
31.53610 11796.0
31.54410 12328.0
31.55210 12547.0
31.56010 12439.0
31.56810 13221.0
31.57610 13168.0
31.58410 13425.0
31.59210 13590.0
31.60010 13596.0
31.60810 13863.0
31.61610 13983.0
31.62410 14297.0
31.63210 14218.0
31.64010 14278.0
31.64810 14172.0
31.65610 14471.0
31.66410 14735.0
31.67210 14810.0
31.68010 14599.0
31.68810 14876.0
31.69610 15031.0
31.70410 14988.0
31.71210 15335.0
31.72010 15081.0
31.72810 15039.0
31.73610 15266.0
31.74410 15122.0
31.75210 14947.0
31.76010 15038.0
31.76810 15098.0
31.77610 15104.0
31.78410 14963.0
31.79210 15076.0
31.80010 14646.0
31.80810 14197.0
31.81610 14283.0
31.82410 14116.0
31.83210 14008.0
31.84010 13715.0
31.84810 13903.0
31.85610 13368.0
31.86410 13365.0
31.87210 13072.0
31.88010 13017.0
31.88810 12719.0
31.89610 12799.0
31.90410 12231.0
31.91210 12394.0
31.92010 12129.0
31.92810 11544.0
31.93610 11608.0
31.94410 11361.0
31.95210 11181.0
31.96010 10877.0
31.96810 10357.0
31.97610 10461.0
31.98410 10150.0
31.99210 9875.0
32.00010 9713.0
32.00810 9655.0
32.01610 9238.0
32.02410 9048.0
32.03210 8870.0
32.04010 8602.0
32.04810 8412.0
32.05610 8185.0
32.06410 8156.0
32.07210 7646.0
32.08010 7517.0
32.08810 7413.0
32.09610 7234.0
32.10410 7053.0
32.11210 6794.0
32.12010 6681.0
32.12810 6532.0
32.13610 6238.0
32.14410 6205.0
32.15210 5797.0
32.16010 5633.0
32.16810 5640.0
32.17610 5413.0
32.18410 5142.0
32.19210 5109.0
32.20010 4952.0
32.20810 4741.0
32.21610 4711.0
32.22410 4579.0
32.23210 4584.0
32.24010 4293.0
32.24810 4149.0
32.25610 4116.0
32.26410 3938.0
32.27210 3887.0
32.28010 3751.0
32.28810 3619.0
32.29610 3534.0
32.30410 3398.0
32.31210 3360.0
32.32010 3297.0
32.32810 3085.0
32.33610 3003.0
32.34410 2930.0
32.35210 3020.0
32.36010 2740.0
32.36810 2784.0
32.37610 2647.0
32.38410 2458.0
32.39210 2482.0
32.40010 2401.0
32.40810 2316.0
32.41610 2430.0
32.42410 2283.0
32.43210 2219.0
32.44010 2165.0
32.44810 2045.0
32.45610 2049.0
32.46410 1997.0
32.47210 1922.0
32.48010 1884.0
32.48810 1793.0
32.49610 1850.0
32.50410 1805.0
32.51210 1662.0
32.52010 1683.0
32.52810 1620.0
32.53610 1568.0
32.54410 1651.0
32.55210 1493.0
32.56010 1489.0
32.56810 1499.0
32.57610 1392.0
32.58410 1409.0
32.59210 1415.0
32.60010 1402.0
32.60810 1339.0
32.61610 1306.0
32.62410 1242.0
32.63210 1305.0
32.64010 1331.0
32.64810 1266.0
32.65610 1230.0
32.66410 1180.0
32.67210 1197.0
32.68010 1167.0
32.68810 1154.0