Folder: DataAnalysis/data/W6716/XRD_2ThetaOmega

Note: data/W6716/XRD_2ThetaOmega/W6716_peaks.TXT
No.	Label	Pos. [°2Th.]	FWHM Left [°2Th.]	Area [cts*°2Th.]	Backgr.[cts]	d-spacing [Å]	Height [cts]	Shape Left	Status	Integral Breadth [°2Th.]	FWHM Right [°2Th.]	Shape Right	Obs. Lorentz B [°2Th.]	Obs. Gauss B [°2Th.]	Instr. Lorentz B [°2Th.]	Instr. Gauss B [°2Th.]	Crystallite Size [Å]	Micro Strain [%]	Crystallite Size only [Å]	Micro Strain only [%]
1	Cr2O3 3 0 0	64,6960(2)	0,2629(3)	6759,15	504,31	1,43965	16365(56)	1,000(5)	Included	0,413028	 	 	0,411090	0,006975	0,077383	0,065557	313,101500	-0,044908	313,073400	0,229922
2	Al2O3 3 0 0	68,146030(5)	0,06067(2)	56042,04	769,54	1,37492	731159(177)	0,4882(4)	Included	0,076648	 	 	0,040462	0,048114	0,078465	0,066474	-2804,112000	-0,029590	33694,800000	0,002040

Note: README.md
# Methods
## RSM analysis

Check out [doc](documentation/RSM.md)

File: phi0scan_2th-om_m_Cr2O3_55-75deg_PIXscan_4min_W6716_5.xy
55.0019 12.0
55.0708 11.0
55.1397 12.0
55.2087 15.0
55.2776 12.0
55.3465 9.0
55.4155 15.0
55.4844 10.0
55.5533 11.0
55.6223 8.0
55.6912 13.0
55.7601 6.0
55.8291 11.0
55.898 8.0
55.9669 4.0
56.0359 11.0
56.1048 7.0
56.1737 13.0
56.2427 12.0
56.3116 7.0
56.3805 6.0
56.4495 10.0
56.5184 8.0
56.5873 9.0
56.6563 9.0
56.7252 9.0
56.7941 3.0
56.8631 18.0
56.932 10.0
57.0009 8.0
57.0699 11.0
57.1388 11.0
57.2077 5.0
57.2767 14.0
57.3456 11.0
57.4146 9.0
57.4835 8.0
57.5524 10.0
57.6214 14.0
57.6903 14.0
57.7592 19.0
57.8282 15.0
57.8971 12.0
57.966 11.0
58.035 6.0
58.1039 12.0
58.1728 9.0
58.2418 10.0
58.3107 8.0
58.3796 12.0
58.4486 9.0
58.5175 12.0
58.5864 9.0
58.6554 9.0
58.7243 9.0
58.7932 5.0
58.8622 10.0
58.9311 8.0
59 10.0
59.069 12.0
59.1379 13.0
59.2068 17.0
59.2758 8.0
59.3447 11.0
59.4136 9.0
59.4826 12.0
59.5515 9.0
59.6204 12.0
59.6894 13.0
59.7583 10.0
59.8272 4.0
59.8962 8.0
59.9651 8.0
60.034 15.0
60.103 9.0
60.1719 14.0
60.2408 16.0
60.3098 12.0
60.3787 17.0
60.4476 13.0
60.5166 13.0
60.5855 18.0
60.6544 33.0
60.7234 101.0
60.7923 613.0
60.8613 187.0
60.9302 80.0
60.9991 26.0
61.0681 22.0
61.137 27.0
61.2059 18.0
61.2749 27.0
61.3438 7.0
61.4127 14.0
61.4817 16.0
61.5506 13.0
61.6195 17.0
61.6885 15.0
61.7574 16.0
61.8263 22.0
61.8953 11.0
61.9642 8.0
62.0331 14.0
62.1021 15.0
62.171 16.0
62.2399 19.0
62.3089 17.0
62.3778 19.0
62.4467 17.0
62.5157 13.0
62.5846 15.0
62.6535 23.0
62.7225 20.0
62.7914 23.0
62.8603 17.0
62.9293 20.0
62.9982 39.0
63.0671 19.0
63.1361 24.0
63.205 24.0
63.2739 32.0
63.3429 31.0
63.4118 23.0
63.4807 33.0
63.5497 38.0
63.6186 42.0
63.6875 36.0
63.7565 45.0
63.8254 41.0
63.8943 67.0
63.9633 67.0
64.0322 94.0
64.1011 86.0
64.1701 99.0
64.239 109.0
64.3079 173.0
64.3769 203.0
64.4458 261.0
64.5148 311.0
64.5837 415.0
64.6526 570.0
64.7216 593.0
64.7905 516.0
64.8594 473.0
64.9284 359.0
64.9973 243.0
65.0662 160.0
65.1352 110.0
65.2041 79.0
65.273 74.0
65.342 62.0
65.4109 47.0
65.4798 69.0
65.5488 50.0
65.6177 52.0
65.6866 47.0
65.7556 46.0
65.8245 48.0
65.8934 65.0
65.9624 62.0
66.0313 56.0
66.1002 53.0
66.1692 68.0
66.2381 60.0
66.307 73.0
66.376 68.0
66.4449 83.0
66.5138 91.0
66.5828 91.0
66.6517 104.0
66.7206 107.0
66.7896 87.0
66.8585 101.0
66.9274 141.0
66.9964 131.0
67.0653 131.0
67.1342 169.0
67.2032 191.0
67.2721 192.0
67.341 195.0
67.41 274.0
67.4789 339.0
67.5478 345.0
67.6168 401.0
67.6857 635.0
67.7546 1245.0
67.8236 1439.0
67.8925 1499.0
67.9615 2545.0
68.0304 8650.0
68.0993 141986.0
68.1683 19965.0
68.2372 9781.0
68.3061 75495.0
68.3751 7007.0
68.444 2145.0
68.5129 1255.0
68.5819 932.0
68.6508 684.0
68.7197 602.0
68.7887 453.0
68.8576 385.0
68.9265 322.0
68.9955 300.0
69.0644 197.0
69.1333 195.0
69.2023 184.0
69.2712 146.0
69.3401 139.0
69.4091 143.0
69.478 116.0
69.5469 118.0
69.6159 100.0
69.6848 97.0
69.7537 95.0
69.8227 69.0
69.8916 56.0
69.9605 49.0
70.0295 54.0
70.0984 54.0
70.1673 62.0
70.2363 46.0
70.3052 47.0
70.3741 45.0
70.4431 41.0
70.512 30.0
70.5809 24.0
70.6499 20.0
70.7188 22.0
70.7877 18.0
70.8567 31.0
70.9256 26.0
70.9945 31.0
71.0635 30.0
71.1324 18.0
71.2013 20.0
71.2703 18.0
71.3392 12.0
71.4082 22.0
71.4771 27.0
71.546 22.0
71.615 22.0
71.6839 19.0
71.7528 19.0
71.8218 18.0
71.8907 19.0
71.9596 19.0
72.0286 14.0
72.0975 17.0
72.1664 14.0
72.2354 19.0
72.3043 13.0
72.3732 15.0
72.4422 19.0
72.5111 15.0
72.58 18.0
72.649 15.0
72.7179 12.0
72.7868 16.0
72.8558 19.0
72.9247 18.0
72.9936 13.0
73.0626 20.0
73.1315 10.0
73.2004 10.0
73.2694 13.0
73.3383 19.0
73.4072 12.0
73.4762 12.0
73.5451 16.0
73.614 10.0
73.683 15.0
73.7519 12.0
73.8208 12.0
73.8898 17.0
73.9587 8.0
74.0276 10.0
74.0966 14.0
74.1655 11.0
74.2344 9.0
74.3034 6.0
74.3723 4.0
74.4412 13.0
74.5102 12.0
74.5791 8.0
74.648 14.0
74.717 15.0
74.7859 11.0
74.8548 10.0
74.9238 10.0
74.9927 8.0
74.9976 11.0

File: phi90scan_2th-om_m_Cr2O3_55-75deg_PIXscan_4min_W6716_6.xy
55.0019 11.0
55.0708 11.0
55.1397 9.0
55.2087 13.0
55.2776 9.0
55.3465 14.0
55.4155 9.0
55.4844 11.0
55.5533 15.0
55.6223 8.0
55.6912 10.0
55.7601 11.0
55.8291 14.0
55.898 9.0
55.9669 12.0
56.0359 11.0
56.1048 15.0
56.1737 13.0
56.2427 17.0
56.3116 17.0
56.3805 12.0
56.4495 10.0
56.5184 14.0
56.5873 13.0
56.6563 12.0
56.7252 10.0
56.7941 18.0
56.8631 9.0
56.932 5.0
57.0009 12.0
57.0699 9.0
57.1388 5.0
57.2077 15.0
57.2767 5.0
57.3456 15.0
57.4146 12.0
57.4835 13.0
57.5524 7.0
57.6214 17.0
57.6903 19.0
57.7592 17.0
57.8282 25.0
57.8971 31.0
57.966 18.0
58.035 26.0
58.1039 12.0
58.1728 15.0
58.2418 15.0
58.3107 15.0
58.3796 8.0
58.4486 12.0
58.5175 12.0
58.5864 12.0
58.6554 11.0
58.7243 9.0
58.7932 11.0
58.8622 11.0
58.9311 9.0
59 15.0
59.069 12.0
59.1379 6.0
59.2068 4.0
59.2758 14.0
59.3447 8.0
59.4136 9.0
59.4826 9.0
59.5515 10.0
59.6204 12.0
59.6894 15.0
59.7583 7.0
59.8272 10.0
59.8962 15.0
59.9651 16.0
60.034 12.0
60.103 14.0
60.1719 16.0
60.2408 15.0
60.3098 16.0
60.3787 20.0
60.4476 15.0
60.5166 23.0
60.5855 23.0
60.6544 36.0
60.7234 86.0
60.7923 611.0
60.8613 214.0
60.9302 61.0
60.9991 40.0
61.0681 31.0
61.137 24.0
61.2059 17.0
61.2749 24.0
61.3438 15.0
61.4127 21.0
61.4817 19.0
61.5506 16.0
61.6195 17.0
61.6885 13.0
61.7574 15.0
61.8263 14.0
61.8953 29.0
61.9642 15.0
62.0331 19.0
62.1021 17.0
62.171 26.0
62.2399 18.0
62.3089 16.0
62.3778 24.0
62.4467 22.0
62.5157 26.0
62.5846 24.0
62.6535 31.0
62.7225 23.0
62.7914 34.0
62.8603 33.0
62.9293 33.0
62.9982 32.0
63.0671 45.0
63.1361 31.0
63.205 39.0
63.2739 35.0
63.3429 33.0
63.4118 34.0
63.4807 41.0
63.5497 29.0
63.6186 36.0
63.6875 49.0
63.7565 50.0
63.8254 97.0
63.8943 65.0
63.9633 107.0
64.0322 95.0
64.1011 141.0
64.1701 157.0
64.239 211.0
64.3079 281.0
64.3769 400.0
64.4458 509.0
64.5148 878.0
64.5837 1486.0
64.6526 2185.0
64.7216 2361.0
64.7905 2025.0
64.8594 1721.0
64.9284 1246.0
64.9973 727.0
65.0662 417.0
65.1352 264.0
65.2041 197.0
65.273 132.0
65.342 124.0
65.4109 109.0
65.4798 74.0
65.5488 94.0
65.6177 71.0
65.6866 60.0
65.7556 56.0
65.8245 58.0
65.8934 48.0
65.9624 51.0
66.0313 53.0
66.1002 59.0
66.1692 67.0
66.2381 75.0
66.307 68.0
66.376 81.0
66.4449 65.0
66.5138 68.0
66.5828 86.0
66.6517 92.0
66.7206 106.0
66.7896 118.0
66.8585 121.0
66.9274 113.0
66.9964 115.0
67.0653 129.0
67.1342 172.0
67.2032 178.0
67.2721 194.0
67.341 200.0
67.41 267.0
67.4789 303.0
67.5478 383.0
67.6168 426.0
67.6857 650.0
67.7546 1137.0
67.8236 1375.0
67.8925 1467.0
67.9615 2501.0
68.0304 7703.0
68.0993 134797.0
68.1683 21789.0
68.2372 9073.0
68.3061 75958.0
68.3751 7642.0
68.444 2221.0
68.5129 1285.0
68.5819 885.0
68.6508 657.0
68.7197 555.0
68.7887 497.0
68.8576 405.0
68.9265 361.0
68.9955 287.0
69.0644 266.0
69.1333 271.0
69.2023 199.0
69.2712 186.0
69.3401 141.0
69.4091 139.0
69.478 119.0
69.5469 112.0
69.6159 116.0
69.6848 101.0
69.7537 90.0
69.8227 76.0
69.8916 62.0
69.9605 62.0
70.0295 61.0
70.0984 52.0
70.1673 48.0
70.2363 36.0
70.3052 50.0
70.3741 43.0
70.4431 49.0
70.512 36.0
70.5809 41.0
70.6499 39.0
70.7188 32.0
70.7877 27.0
70.8567 31.0
70.9256 38.0
70.9945 34.0
71.0635 25.0
71.1324 32.0
71.2013 22.0
71.2703 29.0
71.3392 26.0
71.4082 19.0
71.4771 21.0
71.546 19.0
71.615 18.0
71.6839 19.0
71.7528 20.0
71.8218 23.0
71.8907 23.0
71.9596 22.0
72.0286 23.0
72.0975 19.0
72.1664 27.0
72.2354 18.0
72.3043 12.0
72.3732 13.0
72.4422 19.0
72.5111 21.0
72.58 13.0
72.649 18.0
72.7179 18.0
72.7868 18.0
72.8558 29.0
72.9247 16.0
72.9936 20.0
73.0626 18.0
73.1315 11.0
73.2004 13.0
73.2694 19.0
73.3383 14.0
73.4072 9.0
73.4762 17.0
73.5451 11.0
73.614 15.0
73.683 17.0
73.7519 11.0
73.8208 8.0
73.8898 12.0
73.9587 12.0
74.0276 13.0
74.0966 11.0
74.1655 15.0
74.2344 7.0
74.3034 16.0
74.3723 11.0
74.4412 13.0
74.5102 9.0
74.5791 8.0
74.648 11.0
74.717 13.0
74.7859 14.0
74.8548 16.0
74.9238 15.0
74.9927 15.0
74.9976 13.0

File: phi180scan_2th-om_m_Cr2O3_55-75deg_PIXscan_4min_W6716_7.xy
55.0019 2.0
55.0708 11.0
55.1397 7.0
55.2087 8.0
55.2776 13.0
55.3465 15.0
55.4155 12.0
55.4844 11.0
55.5533 8.0
55.6223 8.0
55.6912 11.0
55.7601 9.0
55.8291 8.0
55.898 11.0
55.9669 6.0
56.0359 10.0
56.1048 8.0
56.1737 9.0
56.2427 7.0
56.3116 10.0
56.3805 10.0
56.4495 11.0
56.5184 8.0
56.5873 6.0
56.6563 14.0
56.7252 8.0
56.7941 11.0
56.8631 4.0
56.932 10.0
57.0009 13.0
57.0699 5.0
57.1388 7.0
57.2077 9.0
57.2767 15.0
57.3456 12.0
57.4146 10.0
57.4835 15.0
57.5524 6.0
57.6214 14.0
57.6903 16.0
57.7592 14.0
57.8282 16.0
57.8971 8.0
57.966 8.0
58.035 18.0
58.1039 10.0
58.1728 11.0
58.2418 12.0
58.3107 10.0
58.3796 7.0
58.4486 14.0
58.5175 14.0
58.5864 7.0
58.6554 8.0
58.7243 6.0
58.7932 6.0
58.8622 13.0
58.9311 8.0
59 7.0
59.069 7.0
59.1379 7.0
59.2068 5.0
59.2758 10.0
59.3447 10.0
59.4136 7.0
59.4826 9.0
59.5515 9.0
59.6204 13.0
59.6894 14.0
59.7583 15.0
59.8272 12.0
59.8962 9.0
59.9651 12.0
60.034 8.0
60.103 6.0
60.1719 11.0
60.2408 13.0
60.3098 17.0
60.3787 18.0
60.4476 16.0
60.5166 17.0
60.5855 16.0
60.6544 23.0
60.7234 94.0
60.7923 696.0
60.8613 215.0
60.9302 78.0
60.9991 39.0
61.0681 19.0
61.137 33.0
61.2059 23.0
61.2749 19.0
61.3438 23.0
61.4127 23.0
61.4817 22.0
61.5506 21.0
61.6195 19.0
61.6885 14.0
61.7574 17.0
61.8263 12.0
61.8953 22.0
61.9642 25.0
62.0331 19.0
62.1021 16.0
62.171 18.0
62.2399 21.0
62.3089 15.0
62.3778 14.0
62.4467 20.0
62.5157 25.0
62.5846 28.0
62.6535 29.0
62.7225 24.0
62.7914 21.0
62.8603 18.0
62.9293 23.0
62.9982 18.0
63.0671 30.0
63.1361 28.0
63.205 26.0
63.2739 33.0
63.3429 25.0
63.4118 28.0
63.4807 34.0
63.5497 28.0
63.6186 52.0
63.6875 42.0
63.7565 53.0
63.8254 51.0
63.8943 60.0
63.9633 76.0
64.0322 70.0
64.1011 68.0
64.1701 86.0
64.239 106.0
64.3079 116.0
64.3769 162.0
64.4458 182.0
64.5148 276.0
64.5837 334.0
64.6526 434.0
64.7216 481.0
64.7905 441.0
64.8594 357.0
64.9284 292.0
64.9973 221.0
65.0662 151.0
65.1352 110.0
65.2041 97.0
65.273 76.0
65.342 82.0
65.4109 56.0
65.4798 63.0
65.5488 49.0
65.6177 58.0
65.6866 52.0
65.7556 65.0
65.8245 47.0
65.8934 54.0
65.9624 49.0
66.0313 55.0
66.1002 52.0
66.1692 73.0
66.2381 51.0
66.307 69.0
66.376 71.0
66.4449 77.0
66.5138 78.0
66.5828 85.0
66.6517 89.0
66.7206 96.0
66.7896 113.0
66.8585 111.0
66.9274 121.0
66.9964 134.0
67.0653 124.0
67.1342 153.0
67.2032 166.0
67.2721 180.0
67.341 176.0
67.41 207.0
67.4789 295.0
67.5478 351.0
67.6168 398.0
67.6857 617.0
67.7546 1140.0
67.8236 1481.0
67.8925 1553.0
67.9615 2561.0
68.0304 7489.0
68.0993 134514.0
68.1683 26130.0
68.2372 8987.0
68.3061 78490.0
68.3751 8840.0
68.444 2330.0
68.5129 1312.0
68.5819 872.0
68.6508 722.0
68.7197 582.0
68.7887 451.0
68.8576 380.0
68.9265 336.0
68.9955 314.0
69.0644 296.0
69.1333 193.0
69.2023 174.0
69.2712 173.0
69.3401 151.0
69.4091 120.0
69.478 132.0
69.5469 114.0
69.6159 98.0
69.6848 74.0
69.7537 78.0
69.8227 68.0
69.8916 75.0
69.9605 68.0
70.0295 55.0
70.0984 37.0
70.1673 40.0
70.2363 44.0
70.3052 49.0
70.3741 39.0
70.4431 35.0
70.512 37.0
70.5809 40.0
70.6499 32.0
70.7188 23.0
70.7877 25.0
70.8567 31.0
70.9256 26.0
70.9945 20.0
71.0635 33.0
71.1324 23.0
71.2013 31.0
71.2703 17.0
71.3392 23.0
71.4082 28.0
71.4771 20.0
71.546 18.0
71.615 20.0
71.6839 16.0
71.7528 23.0
71.8218 21.0
71.8907 16.0
71.9596 16.0
72.0286 23.0
72.0975 16.0
72.1664 20.0
72.2354 27.0
72.3043 11.0
72.3732 20.0
72.4422 15.0
72.5111 21.0
72.58 11.0
72.649 21.0
72.7179 11.0
72.7868 12.0
72.8558 16.0
72.9247 19.0
72.9936 15.0
73.0626 10.0
73.1315 16.0
73.2004 15.0
73.2694 15.0
73.3383 17.0
73.4072 11.0
73.4762 13.0
73.5451 15.0
73.614 11.0
73.683 12.0
73.7519 15.0
73.8208 8.0
73.8898 11.0
73.9587 18.0
74.0276 6.0
74.0966 14.0
74.1655 10.0
74.2344 8.0
74.3034 13.0
74.3723 12.0
74.4412 11.0
74.5102 9.0
74.5791 15.0
74.648 8.0
74.717 15.0
74.7859 18.0
74.8548 11.0
74.9238 8.0
74.9927 9.0
74.9976 16.0

File: phi270scan_2th-om_m_Cr2O3_55-75deg_PIXscan_4min_W6716_8.xy
55.0019 12.0
55.0708 14.0
55.1397 9.0
55.2087 9.0
55.2776 11.0
55.3465 5.0
55.4155 12.0
55.4844 8.0
55.5533 13.0
55.6223 9.0
55.6912 9.0
55.7601 12.0
55.8291 13.0
55.898 12.0
55.9669 7.0
56.0359 9.0
56.1048 10.0
56.1737 12.0
56.2427 14.0
56.3116 12.0
56.3805 13.0
56.4495 6.0
56.5184 9.0
56.5873 9.0
56.6563 18.0
56.7252 11.0
56.7941 10.0
56.8631 17.0
56.932 7.0
57.0009 5.0
57.0699 9.0
57.1388 8.0
57.2077 7.0
57.2767 7.0
57.3456 6.0
57.4146 16.0
57.4835 13.0
57.5524 15.0
57.6214 20.0
57.6903 22.0
57.7592 25.0
57.8282 25.0
57.8971 25.0
57.966 18.0
58.035 12.0
58.1039 17.0
58.1728 9.0
58.2418 8.0
58.3107 17.0
58.3796 7.0
58.4486 6.0
58.5175 21.0
58.5864 9.0
58.6554 7.0
58.7243 14.0
58.7932 10.0
58.8622 9.0
58.9311 17.0
59 17.0
59.069 13.0
59.1379 15.0
59.2068 13.0
59.2758 10.0
59.3447 8.0
59.4136 21.0
59.4826 8.0
59.5515 12.0
59.6204 6.0
59.6894 10.0
59.7583 12.0
59.8272 10.0
59.8962 7.0
59.9651 18.0
60.034 12.0
60.103 15.0
60.1719 19.0
60.2408 22.0
60.3098 23.0
60.3787 16.0
60.4476 19.0
60.5166 20.0
60.5855 19.0
60.6544 24.0
60.7234 94.0
60.7923 675.0
60.8613 214.0
60.9302 65.0
60.9991 36.0
61.0681 26.0
61.137 27.0
61.2059 19.0
61.2749 19.0
61.3438 19.0
61.4127 16.0
61.4817 30.0
61.5506 12.0
61.6195 11.0
61.6885 22.0
61.7574 23.0
61.8263 19.0
61.8953 15.0
61.9642 22.0
62.0331 21.0
62.1021 22.0
62.171 16.0
62.2399 15.0
62.3089 26.0
62.3778 13.0
62.4467 31.0
62.5157 30.0
62.5846 29.0
62.6535 30.0
62.7225 32.0
62.7914 37.0
62.8603 24.0
62.9293 37.0
62.9982 22.0
63.0671 32.0
63.1361 40.0
63.205 39.0
63.2739 39.0
63.3429 35.0
63.4118 48.0
63.4807 47.0
63.5497 58.0
63.6186 48.0
63.6875 65.0
63.7565 62.0
63.8254 74.0
63.8943 80.0
63.9633 85.0
64.0322 98.0
64.1011 137.0
64.1701 169.0
64.239 203.0
64.3079 297.0
64.3769 409.0
64.4458 608.0
64.5148 916.0
64.5837 1528.0
64.6526 2387.0
64.7216 2487.0
64.7905 2144.0
64.8594 1875.0
64.9284 1323.0
64.9973 767.0
65.0662 478.0
65.1352 268.0
65.2041 203.0
65.273 144.0
65.342 120.0
65.4109 100.0
65.4798 78.0
65.5488 86.0
65.6177 70.0
65.6866 57.0
65.7556 63.0
65.8245 61.0
65.8934 72.0
65.9624 64.0
66.0313 60.0
66.1002 72.0
66.1692 59.0
66.2381 80.0
66.307 82.0
66.376 82.0
66.4449 85.0
66.5138 86.0
66.5828 106.0
66.6517 88.0
66.7206 116.0
66.7896 112.0
66.8585 120.0
66.9274 161.0
66.9964 157.0
67.0653 170.0
67.1342 139.0
67.2032 174.0
67.2721 170.0
67.341 275.0
67.41 274.0
67.4789 326.0
67.5478 313.0
67.6168 429.0
67.6857 630.0
67.7546 1180.0
67.8236 1406.0
67.8925 1456.0
67.9615 2550.0
68.0304 7850.0
68.0993 137246.0
68.1683 21948.0
68.2372 9313.0
68.3061 75683.0
68.3751 7519.0
68.444 2171.0
68.5129 1260.0
68.5819 856.0
68.6508 656.0
68.7197 541.0
68.7887 401.0
68.8576 350.0
68.9265 323.0
68.9955 275.0
69.0644 260.0
69.1333 193.0
69.2023 149.0
69.2712 152.0
69.3401 140.0
69.4091 124.0
69.478 101.0
69.5469 98.0
69.6159 87.0
69.6848 94.0
69.7537 71.0
69.8227 81.0
69.8916 56.0
69.9605 44.0
70.0295 65.0
70.0984 47.0
70.1673 49.0
70.2363 38.0
70.3052 44.0
70.3741 36.0
70.4431 39.0
70.512 32.0
70.5809 27.0
70.6499 38.0
70.7188 28.0
70.7877 23.0
70.8567 34.0
70.9256 25.0
70.9945 25.0
71.0635 26.0
71.1324 30.0
71.2013 22.0
71.2703 23.0
71.3392 13.0
71.4082 22.0
71.4771 25.0
71.546 21.0
71.615 13.0
71.6839 18.0
71.7528 23.0
71.8218 16.0
71.8907 22.0
71.9596 22.0
72.0286 11.0
72.0975 20.0
72.1664 18.0
72.2354 20.0
72.3043 20.0
72.3732 18.0
72.4422 15.0
72.5111 12.0
72.58 13.0
72.649 16.0
72.7179 17.0
72.7868 18.0
72.8558 16.0
72.9247 19.0
72.9936 18.0
73.0626 10.0
73.1315 16.0
73.2004 10.0
73.2694 15.0
73.3383 12.0
73.4072 13.0
73.4762 13.0
73.5451 19.0
73.614 12.0
73.683 10.0
73.7519 8.0
73.8208 16.0
73.8898 10.0
73.9587 11.0
74.0276 13.0
74.0966 16.0
74.1655 12.0
74.2344 12.0
74.3034 18.0
74.3723 7.0
74.4412 11.0
74.5102 9.0
74.5791 16.0
74.648 14.0
74.717 10.0
74.7859 18.0
74.8548 8.0
74.9238 11.0
74.9927 8.0
74.9976 9.0

File: W6716_absolute_2th-om_10-100deg.xy
10.0045 19.0
10.3048 23.0
10.6052 18.0
10.9055 19.0
11.2059 22.0
11.5062 28.0
11.8066 15.0
12.1069 20.0
12.4073 23.0
12.7077 13.0
13.008 14.0
13.3084 17.0
13.6087 15.0
13.9091 23.0
14.2094 19.0
14.5098 12.0
14.8101 18.0
15.1105 15.0
15.4109 13.0
15.7112 15.0
16.0116 14.0
16.3119 11.0
16.6123 13.0
16.9126 11.0
17.213 10.0
17.5133 9.0
17.8137 14.0
18.1141 11.0
18.4144 15.0
18.7148 7.0
19.0151 8.0
19.3155 13.0
19.6158 4.0
19.9162 13.0
20.2165 8.0
20.5169 7.0
20.8172 11.0
21.1176 7.0
21.418 13.0
21.7183 8.0
22.0187 11.0
22.319 12.0
22.6194 5.0
22.9197 13.0
23.2201 7.0
23.5204 6.0
23.8208 5.0
24.1212 4.0
24.4215 10.0
24.7219 5.0
25.0222 5.0
25.3226 6.0
25.6229 11.0
25.9233 5.0
26.2236 6.0
26.524 7.0
26.8244 8.0
27.1247 2.0
27.4251 5.0
27.7254 5.0
28.0258 5.0
28.3261 4.0
28.6265 6.0
28.9268 6.0
29.2272 4.0
29.5276 3.0
29.8279 5.0
30.1283 2.0
30.4286 5.0
30.729 5.0
31.0293 1.0
31.3297 2.0
31.63 5.0
31.9304 3.0
32.2307 10.0
32.5311 2.0
32.8315 5.0
33.1318 1.0
33.4322 4.0
33.7325 1.0
34.0329 0.0
34.3332 1.0
34.6336 3.0
34.9339 8.0
35.2343 2.0
35.5347 6.0
35.835 3.0
36.1354 2.0
36.4357 5.0
36.7361 1.0
37.0364 3.0
37.3368 3.0
37.6371 1.0
37.9375 5.0
38.2379 7.0
38.5382 1.0
38.8386 3.0
39.1389 4.0
39.4393 2.0
39.7396 3.0
40.04 1.0
40.3403 1.0
40.6407 1.0
40.941 1.0
41.2414 4.0
41.5418 2.0
41.8421 7.0
42.1425 1.0
42.4428 1.0
42.7432 3.0
43.0435 1.0
43.3439 0.0
43.6442 1.0
43.9446 2.0
44.245 5.0
44.5453 5.0
44.8457 1.0
45.146 2.0
45.4464 4.0
45.7467 3.0
46.0471 0.0
46.3474 3.0
46.6478 2.0
46.9482 1.0
47.2485 3.0
47.5489 0.0
47.8492 1.0
48.1496 0.0
48.4499 3.0
48.7503 2.0
49.0506 0.0
49.351 2.0
49.6514 1.0
49.9517 2.0
50.2521 4.0
50.5524 3.0
50.8528 1.0
51.1531 1.0
51.4535 5.0
51.7538 1.0
52.0542 3.0
52.3545 4.0
52.6549 3.0
52.9553 3.0
53.2556 3.0
53.556 3.0
53.8563 8.0
54.1567 2.0
54.457 4.0
54.7574 2.0
55.0577 3.0
55.3581 4.0
55.6585 8.0
55.9588 2.0
56.2592 4.0
56.5595 4.0
56.8599 3.0
57.1602 3.0
57.4606 7.0
57.7609 4.0
58.0613 4.0
58.3617 4.0
58.662 12.0
58.9624 2.0
59.2627 3.0
59.5631 5.0
59.8634 2.0
60.1638 2.0
60.4641 8.0
60.7645 25.0
61.0648 5.0
61.3652 8.0
61.6656 6.0
61.9659 6.0
62.2663 5.0
62.5666 2.0
62.867 8.0
63.1673 7.0
63.4677 8.0
63.768 15.0
64.0684 22.0
64.3688 102.0
64.6691 590.0
64.9695 529.0
65.2698 70.0
65.5702 43.0
65.8705 18.0
66.1709 21.0
66.4712 37.0
66.7716 35.0
67.072 69.0
67.3723 69.0
67.6727 125.0
67.973 513.0
68.2734 2625.0
68.5737 314.0
68.8741 103.0
69.1744 74.0
69.4748 40.0
69.7752 26.0
70.0755 15.0
70.3759 13.0
70.6762 6.0
70.9766 10.0
71.2769 6.0
71.5773 3.0
71.8776 7.0
72.178 1.0
72.4783 5.0
72.7787 4.0
73.0791 2.0
73.3794 7.0
73.6798 3.0
73.9801 4.0
74.2805 1.0
74.5808 1.0
74.8812 1.0
75.1815 3.0
75.4819 4.0
75.7823 3.0
76.0826 2.0
76.383 4.0
76.6833 6.0
76.9837 4.0
77.284 2.0
77.5844 3.0
77.8847 3.0
78.1851 3.0
78.4855 1.0
78.7858 2.0
79.0862 5.0
79.3865 3.0
79.6869 1.0
79.9872 1.0
80.2876 1.0
80.5879 0.0
80.8883 1.0
81.1886 3.0
81.489 5.0
81.7894 0.0
82.0897 3.0
82.3901 3.0
82.6904 4.0
82.9908 0.0
83.2911 3.0
83.5915 3.0
83.8918 0.0
84.1922 1.0
84.4926 2.0
84.7929 1.0
85.0933 1.0
85.3936 4.0
85.694 1.0
85.9943 2.0
86.2947 2.0
86.595 0.0
86.8954 3.0
87.1958 2.0
87.4961 3.0
87.7965 2.0
88.0968 6.0
88.3972 1.0
88.6975 1.0
88.9979 1.0
89.2982 1.0
89.5986 0.0
89.8989 4.0
90.1993 2.0
90.4997 3.0
90.8 1.0
91.1004 0.0
91.4007 1.0
91.7011 3.0
92.0014 1.0
92.3018 0.0
92.6021 0.0
92.9025 4.0
93.2029 2.0
93.5032 0.0
93.8036 0.0
94.1039 0.0
94.4043 6.0
94.7046 0.0
95.005 0.0
95.3053 0.0
95.6057 2.0
95.9061 3.0
96.2064 3.0
96.5068 2.0
96.8071 3.0
97.1075 0.0
97.4078 3.0
97.7082 2.0
98.0085 0.0
98.3089 1.0
98.6093 1.0
98.9096 0.0
99.21 2.0
99.5103 0.0
99.8107 4.0
99.9978 3.0

File: W6716_absolute_2th-om_58-72deg-20min_2.xy
58.0028 315.0
58.0496 290.0
58.0964 293.0
58.1432 271.0
58.1899 285.0
58.2367 274.0
58.2835 284.0
58.3303 256.0
58.377 276.0
58.4238 294.0
58.4706 255.0
58.5174 303.0
58.5642 279.0
58.6109 265.0
58.6577 292.0
58.7045 283.0
58.7513 256.0
58.798 255.0
58.8448 278.0
58.8916 281.0
58.9384 264.0
58.9851 281.0
59.0319 282.0
59.0787 264.0
59.1255 284.0
59.1722 302.0
59.219 279.0
59.2658 299.0
59.3126 272.0
59.3594 271.0
59.4061 277.0
59.4529 271.0
59.4997 258.0
59.5465 313.0
59.5932 269.0
59.64 268.0
59.6868 281.0
59.7336 232.0
59.7803 262.0
59.8271 267.0
59.8739 273.0
59.9207 297.0
59.9674 275.0
60.0142 311.0
60.061 226.0
60.1078 293.0
60.1546 292.0
60.2013 282.0
60.2481 279.0
60.2949 315.0
60.3417 306.0
60.3884 280.0
60.4352 310.0
60.482 310.0
60.5288 303.0
60.5755 323.0
60.6223 308.0
60.6691 365.0
60.7159 419.0
60.7627 821.0
60.8094 2309.0
60.8562 1908.0
60.903 1272.0
60.9498 712.0
60.9965 460.0
61.0433 412.0
61.0901 352.0
61.1369 352.0
61.1836 343.0
61.2304 314.0
61.2772 331.0
61.324 330.0
61.3707 319.0
61.4175 339.0
61.4643 335.0
61.5111 364.0
61.5579 437.0
61.6046 447.0
61.6514 463.0
61.6982 455.0
61.745 417.0
61.7917 418.0
61.8385 412.0
61.8853 374.0
61.9321 361.0
61.9788 375.0
62.0256 309.0
62.0724 358.0
62.1192 313.0
62.166 385.0
62.2127 346.0
62.2595 361.0
62.3063 360.0
62.3531 334.0
62.3998 315.0
62.4466 356.0
62.4934 366.0
62.5402 291.0
62.5869 337.0
62.6337 313.0
62.6805 345.0
62.7273 346.0
62.774 359.0
62.8208 361.0
62.8676 352.0
62.9144 374.0
62.9612 339.0
63.0079 342.0
63.0547 358.0
63.1015 378.0
63.1483 350.0
63.195 369.0
63.2418 389.0
63.2886 389.0
63.3354 365.0
63.3821 439.0
63.4289 399.0
63.4757 417.0
63.5225 436.0
63.5693 433.0
63.616 396.0
63.6628 456.0
63.7096 501.0
63.7564 519.0
63.8031 522.0
63.8499 530.0
63.8967 598.0
63.9435 649.0
63.9902 668.0
64.037 826.0
64.0838 866.0
64.1306 998.0
64.1773 1097.0
64.2241 1331.0
64.2709 1573.0
64.3177 1956.0
64.3645 2458.0
64.4112 3124.0
64.458 4246.0
64.5048 5839.0
64.5516 8762.0
64.5983 12661.0
64.6451 17475.0
64.6919 19930.0
64.7387 18793.0
64.7854 16561.0
64.8322 15622.0
64.879 14523.0
64.9258 14220.0
64.9725 10829.0
65.0193 6637.0
65.0661 4573.0
65.1129 3373.0
65.1597 2694.0
65.2064 2181.0
65.2532 1806.0
65.3 1554.0
65.3468 1356.0
65.3935 1300.0
65.4403 1393.0
65.4871 1704.0
65.5339 1263.0
65.5806 1015.0
65.6274 838.0
65.6742 737.0
65.721 718.0
65.7678 658.0
65.8145 669.0
65.8613 652.0
65.9081 621.0
65.9549 625.0
66.0016 636.0
66.0484 579.0
66.0952 634.0
66.142 663.0
66.1887 652.0
66.2355 628.0
66.2823 633.0
66.3291 638.0
66.3758 684.0
66.4226 662.0
66.4694 682.0
66.5162 717.0
66.563 708.0
66.6097 720.0
66.6565 733.0
66.7033 787.0
66.7501 801.0
66.7968 795.0
66.8436 872.0
66.8904 946.0
66.9372 956.0
66.9839 1003.0
67.0307 987.0
67.0775 1071.0
67.1243 1138.0
67.1711 1110.0
67.2178 1239.0
67.2646 1260.0
67.3114 1344.0
67.3582 1403.0
67.4049 1590.0
67.4517 1568.0
67.4985 1749.0
67.5453 1854.0
67.592 1973.0
67.6388 2283.0
67.6856 2946.0
67.7324 3928.0
67.7791 5813.0
67.8259 7012.0
67.8727 7079.0
67.9195 7273.0
67.9663 9612.0
68.013 16055.0
68.0598 36591.0
68.1066 237624.0
68.1534 685075.0
68.2001 118372.0
68.2469 39796.0
68.2937 103587.0
68.3405 351182.0
68.3872 87550.0
68.434 20360.0
68.4808 10973.0
68.5276 7649.0
68.5743 5747.0
68.6211 4748.0
68.6679 3862.0
68.7147 3354.0
68.7615 3043.0
68.8082 2653.0
68.855 2299.0
68.9018 2188.0
68.9486 2038.0
68.9953 1959.0
69.0421 1877.0
69.0889 1768.0
69.1357 1579.0
69.1824 1616.0
69.2292 1420.0
69.276 1417.0
69.3228 1343.0
69.3696 1258.0
69.4163 1184.0
69.4631 1112.0
69.5099 1059.0
69.5567 966.0
69.6034 1013.0
69.6502 944.0
69.697 943.0
69.7438 926.0
69.7905 889.0
69.8373 794.0
69.8841 804.0
69.9309 798.0
69.9776 701.0
70.0244 657.0
70.0712 637.0
70.118 671.0
70.1648 653.0
70.2115 570.0
70.2583 621.0
70.3051 556.0
70.3519 569.0
70.3986 502.0
70.4454 484.0
70.4922 496.0
70.539 485.0
70.5857 537.0
70.6325 491.0
70.6793 454.0
70.7261 446.0
70.7729 457.0
70.8196 450.0
70.8664 461.0
70.9132 420.0
70.96 427.0
71.0067 371.0
71.0535 451.0
71.1003 438.0
71.1471 384.0
71.1938 394.0
71.2406 376.0
71.2874 394.0
71.3342 390.0
71.3809 392.0
71.4277 362.0
71.4745 365.0
71.5213 391.0
71.5681 365.0
71.6148 351.0
71.6616 375.0
71.7084 397.0
71.7552 349.0
71.8019 334.0
71.8487 345.0
71.8955 360.0
71.9423 335.0
71.989 340.0
71.9989 327.0