Folder: DataAnalysis/data/W6932m/XRD_2ThetaOmega

Note: data/W6932m/XRD_2ThetaOmega/W6932m_peaks.TXT
No.	Label	Pos. [°2Th.]	FWHM Left [°2Th.]	Area [cts*°2Th.]	Backgr.[cts]	d-spacing [Å]	Height [cts]	Shape Left	Status	Integral Breadth [°2Th.]	FWHM Right [°2Th.]	Shape Right	Obs. Lorentz B [°2Th.]	Obs. Gauss B [°2Th.]	Instr. Lorentz B [°2Th.]	Instr. Gauss B [°2Th.]	Crystallite Size [Å]	Micro Strain [%]	Crystallite Size only [Å]	Micro Strain only [%]
1	Cr2O3 3 0 0	64,9445(3)	0,237(1)	1272,30	106,32	1,43474	4302(15)	0,460(5)	Included	0,295766	 	 	0,147696	0,192168	0,077455	0,065618	1489,561000	0,123838	459,039800	0,156276
2	Al2O3 3 0 0	68,16909(1)	0,04410(5)	13229,49	120,11	1,37451	218848(192)	0,693(1)	Included	0,060451	 	 	0,043852	0,027915	0,078473	0,066480	-3078,495000	-0,038906	33699,390000	0,002039

Note: README.md
# Methods
## RSM analysis

Check out [doc](documentation/RSM.md)

File: scan_2th-om_m_Cr2O3_55-75deg_PIXscan_4min.xy
55.0019 57.0
55.0708 62.0
55.1397 55.0
55.2087 55.0
55.2776 73.0
55.3465 65.0
55.4155 68.0
55.4844 63.0
55.5533 78.0
55.6223 80.0
55.6912 70.0
55.7601 62.0
55.8291 66.0
55.898 81.0
55.9669 72.0
56.0359 54.0
56.1048 60.0
56.1737 78.0
56.2427 64.0
56.3116 75.0
56.3805 70.0
56.4495 79.0
56.5184 66.0
56.5873 64.0
56.6563 56.0
56.7252 58.0
56.7941 66.0
56.8631 59.0
56.932 62.0
57.0009 75.0
57.0699 70.0
57.1388 51.0
57.2077 64.0
57.2767 67.0
57.3456 63.0
57.4146 78.0
57.4835 75.0
57.5524 53.0
57.6214 71.0
57.6903 69.0
57.7592 68.0
57.8282 97.0
57.8971 63.0
57.966 88.0
58.035 97.0
58.1039 86.0
58.1728 72.0
58.2418 72.0
58.3107 54.0
58.3796 65.0
58.4486 59.0
58.5175 74.0
58.5864 67.0
58.6554 70.0
58.7243 62.0
58.7932 71.0
58.8622 61.0
58.9311 69.0
59 75.0
59.069 63.0
59.1379 88.0
59.2068 73.0
59.2758 61.0
59.3447 71.0
59.4136 67.0
59.4826 67.0
59.5515 69.0
59.6204 57.0
59.6894 72.0
59.7583 59.0
59.8272 67.0
59.8962 56.0
59.9651 66.0
60.034 64.0
60.103 66.0
60.1719 77.0
60.2408 75.0
60.3098 100.0
60.3787 68.0
60.4476 101.0
60.5166 68.0
60.5855 58.0
60.6544 72.0
60.7234 102.0
60.7923 167.0
60.8613 646.0
60.9302 305.0
60.9991 109.0
61.0681 72.0
61.137 89.0
61.2059 75.0
61.2749 76.0
61.3438 79.0
61.4127 78.0
61.4817 80.0
61.5506 72.0
61.6195 78.0
61.6885 84.0
61.7574 72.0
61.8263 72.0
61.8953 56.0
61.9642 80.0
62.0331 79.0
62.1021 75.0
62.171 72.0
62.2399 68.0
62.3089 78.0
62.3778 82.0
62.4467 79.0
62.5157 80.0
62.5846 66.0
62.6535 78.0
62.7225 91.0
62.7914 65.0
62.8603 80.0
62.9293 74.0
62.9982 70.0
63.0671 91.0
63.1361 71.0
63.205 85.0
63.2739 85.0
63.3429 69.0
63.4118 100.0
63.4807 96.0
63.5497 78.0
63.6186 100.0
63.6875 89.0
63.7565 108.0
63.8254 105.0
63.8943 103.0
63.9633 99.0
64.0322 117.0
64.1011 123.0
64.1701 128.0
64.239 151.0
64.3079 152.0
64.3769 181.0
64.4458 216.0
64.5148 302.0
64.5837 461.0
64.6526 609.0
64.7216 859.0
64.7905 1459.0
64.8594 2991.0
64.9284 4917.0
64.9973 4880.0
65.0662 3718.0
65.1352 3272.0
65.2041 2159.0
65.273 1045.0
65.342 576.0
65.4109 316.0
65.4798 291.0
65.5488 202.0
65.6177 170.0
65.6866 145.0
65.7556 150.0
65.8245 133.0
65.8934 123.0
65.9624 115.0
66.0313 118.0
66.1002 119.0
66.1692 115.0
66.2381 130.0
66.307 137.0
66.376 153.0
66.4449 152.0
66.5138 135.0
66.5828 159.0
66.6517 160.0
66.7206 184.0
66.7896 159.0
66.8585 183.0
66.9274 190.0
66.9964 201.0
67.0653 212.0
67.1342 210.0
67.2032 295.0
67.2721 278.0
67.341 302.0
67.41 356.0
67.4789 346.0
67.5478 435.0
67.6168 479.0
67.6857 531.0
67.7546 847.0
67.8236 1715.0
67.8925 1603.0
67.9615 1882.0
68.0304 3420.0
68.0993 12634.0
68.1683 215710.0
68.2372 14826.0
68.3061 12803.0
68.3751 81113.0
68.444 5697.0
68.5129 2123.0
68.5819 1344.0
68.6508 969.0
68.7197 781.0
68.7887 595.0
68.8576 431.0
68.9265 396.0
68.9955 410.0
69.0644 322.0
69.1333 291.0
69.2023 264.0
69.2712 198.0
69.3401 185.0
69.4091 171.0
69.478 165.0
69.5469 140.0
69.6159 148.0
69.6848 135.0
69.7537 116.0
69.8227 114.0
69.8916 116.0
69.9605 112.0
70.0295 104.0
70.0984 94.0
70.1673 103.0
70.2363 91.0
70.3052 112.0
70.3741 90.0
70.4431 110.0
70.512 80.0
70.5809 82.0
70.6499 69.0
70.7188 75.0
70.7877 73.0
70.8567 81.0
70.9256 90.0
70.9945 82.0
71.0635 96.0
71.1324 67.0
71.2013 55.0
71.2703 91.0
71.3392 86.0
71.4082 71.0
71.4771 89.0
71.546 62.0
71.615 90.0
71.6839 55.0
71.7528 70.0
71.8218 60.0
71.8907 89.0
71.9596 60.0
72.0286 85.0
72.0975 63.0
72.1664 79.0
72.2354 70.0
72.3043 71.0
72.3732 92.0
72.4422 75.0
72.5111 73.0
72.58 54.0
72.649 59.0
72.7179 77.0
72.7868 63.0
72.8558 67.0
72.9247 56.0
72.9936 72.0
73.0626 65.0
73.1315 58.0
73.2004 60.0
73.2694 66.0
73.3383 56.0
73.4072 61.0
73.4762 68.0
73.5451 85.0
73.614 70.0
73.683 70.0
73.7519 67.0
73.8208 70.0
73.8898 67.0
73.9587 58.0
74.0276 69.0
74.0966 67.0
74.1655 75.0
74.2344 58.0
74.3034 69.0
74.3723 69.0
74.4412 52.0
74.5102 88.0
74.5791 67.0
74.648 69.0
74.717 68.0
74.7859 88.0
74.8548 72.0
74.9238 71.0
74.9927 49.0
74.9976 70.0