Folder: DataAnalysis/data/W6932m/XRD_Omega

Note: data/W6932m/XRD_Omega/W6932m_omega_peaks.TXT
No.	Label	Pos. [記mega]	FWHM Left [記mega]	Area [cts*記mega]	Backgr.[cts]	d-spacing [魔	Height [cts]	Shape Left	Status	Integral Breadth [記mega]	FWHM Right [記mega]	Shape Right	Obs. Lorentz B [記mega]	Obs. Gauss B [記mega]	Instr. Lorentz B [記mega]	Instr. Gauss B [記mega]	Crystallite Size [魔	Micro Strain [%]	Crystallite Size only [魔	Micro Strain only [%]
1	Cr2O3 3 0 0	31,9879(5)	0,661(1)	1522,73	31,50	 	2005(4)	0,230(3)	Included	0,759315	 	 	0,196748	0,626680	0,074084	0,062761	748,582600	0,949187	130,486400	1,071239

Note: README.md
# Methods
## RSM analysis

Check out [doc](documentation/RSM.md)

File: film_m_can_omega_4deg_step_0.005deg0.xy
30.01130 46.0
30.02630 37.0
30.04130 44.0
30.05630 41.0
30.07130 52.0
30.08630 45.0
30.10130 34.0
30.11630 38.0
30.13130 49.0
30.14630 51.0
30.16130 38.0
30.17630 45.0
30.19130 46.0
30.20630 27.0
30.22130 43.0
30.23630 35.0
30.25130 38.0
30.26630 44.0
30.28130 58.0
30.29630 39.0
30.31130 39.0
30.32630 46.0
30.34130 41.0
30.35630 51.0
30.37130 45.0
30.38630 45.0
30.40130 45.0
30.41630 42.0
30.43130 51.0
30.44630 41.0
30.46130 54.0
30.47630 47.0
30.49130 55.0
30.50630 49.0
30.52130 33.0
30.53630 53.0
30.55130 45.0
30.56630 48.0
30.58130 54.0
30.59630 47.0
30.61130 45.0
30.62630 53.0
30.64130 43.0
30.65630 39.0
30.67130 63.0
30.68630 56.0
30.70130 57.0
30.71630 55.0
30.73130 60.0
30.74630 61.0
30.76130 40.0
30.77630 58.0
30.79130 69.0
30.80630 62.0
30.82130 75.0
30.83630 53.0
30.85130 55.0
30.86630 70.0
30.88130 71.0
30.89630 63.0
30.91130 57.0
30.92630 78.0
30.94130 74.0
30.95630 49.0
30.97130 70.0
30.98630 78.0
31.00130 81.0
31.01630 90.0
31.03130 99.0
31.04630 103.0
31.06130 96.0
31.07630 109.0
31.09130 125.0
31.10630 103.0
31.12130 117.0
31.13630 118.0
31.15130 127.0
31.16630 164.0
31.18130 135.0
31.19630 141.0
31.21130 148.0
31.22630 175.0
31.24130 167.0
31.25630 183.0
31.27130 204.0
31.28630 206.0
31.30130 240.0
31.31630 204.0
31.33130 265.0
31.34630 273.0
31.36130 299.0
31.37630 332.0
31.39130 365.0
31.40630 385.0
31.42130 420.0
31.43630 424.0
31.45130 473.0
31.46630 518.0
31.48130 552.0
31.49630 587.0
31.51130 636.0
31.52630 762.0
31.54130 772.0
31.55630 818.0
31.57130 860.0
31.58630 972.0
31.60130 1046.0
31.61630 1180.0
31.63130 1203.0
31.64630 1307.0
31.66130 1382.0
31.67630 1436.0
31.69130 1546.0
31.70630 1698.0
31.72130 1756.0
31.73630 1832.0
31.75130 2002.0
31.76630 2158.0
31.78130 2266.0
31.79630 2383.0
31.81130 2405.0
31.82630 2457.0
31.84130 2593.0
31.85630 2608.0
31.87130 2638.0
31.88630 2757.0
31.90130 2872.0
31.91630 2872.0
31.93130 2821.0
31.94630 3051.0
31.96130 3038.0
31.97630 3088.0
31.99130 3091.0
32.00630 3129.0
32.02130 2963.0
32.03630 2935.0
32.05130 2976.0
32.06630 2996.0
32.08130 2932.0
32.09630 2819.0
32.11130 2766.0
32.12630 2738.0
32.14130 2685.0
32.15630 2636.0
32.17130 2516.0
32.18630 2354.0
32.20130 2397.0
32.21630 2352.0
32.23130 2221.0
32.24630 2065.0
32.26130 2004.0
32.27630 1892.0
32.29130 1773.0
32.30630 1682.0
32.32130 1717.0
32.33630 1553.0
32.35130 1532.0
32.36630 1422.0
32.38130 1356.0
32.39630 1230.0
32.41130 1087.0
32.42630 1035.0
32.44130 1027.0
32.45630 909.0
32.47130 883.0
32.48630 840.0
32.50130 711.0
32.51630 695.0
32.53130 667.0
32.54630 552.0
32.56130 570.0
32.57630 516.0
32.59130 492.0
32.60630 431.0
32.62130 427.0
32.63630 435.0
32.65130 373.0
32.66630 352.0
32.68130 321.0
32.69630 299.0
32.71130 280.0
32.72630 294.0
32.74130 231.0
32.75630 208.0
32.77130 228.0
32.78630 212.0
32.80130 214.0
32.81630 205.0
32.83130 148.0
32.84630 174.0
32.86130 164.0
32.87630 151.0
32.89130 160.0
32.90630 142.0
32.92130 125.0
32.93630 120.0
32.95130 117.0
32.96630 116.0
32.98130 123.0
32.99630 95.0
33.01130 98.0
33.02630 92.0
33.04130 96.0
33.05630 109.0
33.07130 95.0
33.08630 89.0
33.10130 82.0
33.11630 74.0
33.13130 69.0
33.14630 80.0
33.16130 78.0
33.17630 70.0
33.19130 73.0
33.20630 56.0
33.22130 71.0
33.23630 61.0
33.25130 72.0
33.26630 65.0
33.28130 62.0
33.29630 55.0
33.31130 52.0
33.32630 51.0
33.34130 65.0
33.35630 53.0
33.37130 46.0
33.38630 43.0
33.40130 64.0
33.41630 48.0
33.43130 52.0
33.44630 36.0
33.46130 47.0
33.47630 56.0
33.49130 53.0
33.50630 52.0
33.52130 53.0
33.53630 56.0
33.55130 46.0
33.56630 46.0
33.58130 60.0
33.59630 47.0
33.61130 37.0
33.62630 59.0
33.64130 53.0
33.65630 43.0
33.67130 54.0
33.68630 45.0
33.70130 39.0
33.71630 41.0
33.73130 44.0
33.74630 37.0
33.76130 60.0
33.77630 41.0
33.79130 32.0
33.80630 39.0
33.82130 42.0
33.83630 45.0
33.85130 32.0
33.86630 43.0
33.88130 37.0
33.89630 38.0
33.91130 33.0
33.92630 43.0
33.94130 35.0
33.95630 40.0
33.97130 32.0