Folder: DataAnalysis/data/W6784r/XRD_Omega

Note: data/W6784r/XRD_Omega/W6784r_omega_peaks.TXT
No.	Label	Pos. [記mega]	FWHM Left [記mega]	Area [cts*記mega]	Backgr.[cts]	d-spacing [魔	Height [cts]	Shape Left	Status	Integral Breadth [記mega]	FWHM Right [記mega]	Shape Right	Obs. Lorentz B [記mega]	Obs. Gauss B [記mega]	Instr. Lorentz B [記mega]	Instr. Gauss B [記mega]	Crystallite Size [魔	Micro Strain [%]	Crystallite Size only [魔	Micro Strain only [%]
1	Cr2O3 0 2 4	25,0883(9)	0,840(2)	740,85	46,36	 	776(2)	0,197(6)	Included	0,954342	 	 	0,213202	0,811602	0,074590	0,063187	652,385400	1,586730	100,547300	1,763659

Note: README.md
# Methods
## RSM analysis

Check out [doc](documentation/RSM.md)

File: scan_omega_4deg_step_0.005deg0_6.xy
23.13050 43.0
23.14550 45.0
23.16050 48.0
23.17550 43.0
23.19050 49.0
23.20550 59.0
23.22050 54.0
23.23550 48.0
23.25050 38.0
23.26550 35.0
23.28050 47.0
23.29550 42.0
23.31050 43.0
23.32550 59.0
23.34050 47.0
23.35550 45.0
23.37050 39.0
23.38550 34.0
23.40050 46.0
23.41550 42.0
23.43050 58.0
23.44550 54.0
23.46050 57.0
23.47550 45.0
23.49050 41.0
23.50550 44.0
23.52050 42.0
23.53550 42.0
23.55050 37.0
23.56550 69.0
23.58050 45.0
23.59550 73.0
23.61050 51.0
23.62550 59.0
23.64050 56.0
23.65550 59.0
23.67050 68.0
23.68550 63.0
23.70050 66.0
23.71550 54.0
23.73050 59.0
23.74550 55.0
23.76050 48.0
23.77550 65.0
23.79050 65.0
23.80550 62.0
23.82050 68.0
23.83550 79.0
23.85050 67.0
23.86550 80.0
23.88050 77.0
23.89550 81.0
23.91050 71.0
23.92550 78.0
23.94050 77.0
23.95550 81.0
23.97050 98.0
23.98550 89.0
24.00050 81.0
24.01550 75.0
24.03050 99.0
24.04550 94.0
24.06050 111.0
24.07550 97.0
24.09050 95.0
24.10550 115.0
24.12050 101.0
24.13550 124.0
24.15050 123.0
24.16550 114.0
24.18050 135.0
24.19550 141.0
24.21050 138.0
24.22550 152.0
24.24050 152.0
24.25550 167.0
24.27050 157.0
24.28550 181.0
24.30050 198.0
24.31550 195.0
24.33050 185.0
24.34550 222.0
24.36050 196.0
24.37550 225.0
24.39050 221.0
24.40550 236.0
24.42050 258.0
24.43550 257.0
24.45050 259.0
24.46550 291.0
24.48050 321.0
24.49550 289.0
24.51050 349.0
24.52550 358.0
24.54050 395.0
24.55550 375.0
24.57050 398.0
24.58550 432.0
24.60050 455.0
24.61550 457.0
24.63050 505.0
24.64550 535.0
24.66050 569.0
24.67550 559.0
24.69050 618.0
24.70550 672.0
24.72050 638.0
24.73550 682.0
24.75050 672.0
24.76550 734.0
24.78050 784.0
24.79550 773.0
24.81050 835.0
24.82550 874.0
24.84050 934.0
24.85550 945.0
24.87050 990.0
24.88550 991.0
24.90050 1009.0
24.91550 996.0
24.93050 1099.0
24.94550 1098.0
24.96050 1171.0
24.97550 1181.0
24.99050 1145.0
25.00550 1237.0
25.02050 1272.0
25.03550 1191.0
25.05050 1175.0
25.06550 1225.0
25.08050 1338.0
25.09550 1332.0
25.11050 1359.0
25.12550 1351.0
25.14050 1253.0
25.15550 1298.0
25.17050 1292.0
25.18550 1238.0
25.20050 1212.0
25.21550 1249.0
25.23050 1189.0
25.24550 1141.0
25.26050 1074.0
25.27550 1095.0
25.29050 1112.0
25.30550 1026.0
25.32050 1004.0
25.33550 1031.0
25.35050 898.0
25.36550 916.0
25.38050 871.0
25.39550 830.0
25.41050 797.0
25.42550 781.0
25.44050 778.0
25.45550 678.0
25.47050 672.0
25.48550 676.0
25.50050 662.0
25.51550 607.0
25.53050 604.0
25.54550 623.0
25.56050 559.0
25.57550 538.0
25.59050 501.0
25.60550 452.0
25.62050 431.0
25.63550 429.0
25.65050 356.0
25.66550 376.0
25.68050 375.0
25.69550 358.0
25.71050 339.0
25.72550 309.0
25.74050 276.0
25.75550 311.0
25.77050 290.0
25.78550 285.0
25.80050 269.0
25.81550 252.0
25.83050 226.0
25.84550 220.0
25.86050 225.0
25.87550 196.0
25.89050 190.0
25.90550 140.0
25.92050 185.0
25.93550 168.0
25.95050 176.0
25.96550 142.0
25.98050 123.0
25.99550 131.0
26.01050 117.0
26.02550 141.0
26.04050 130.0
26.05550 124.0
26.07050 112.0
26.08550 121.0
26.10050 93.0
26.11550 116.0
26.13050 106.0
26.14550 97.0
26.16050 102.0
26.17550 103.0
26.19050 94.0
26.20550 87.0
26.22050 80.0
26.23550 90.0
26.25050 73.0
26.26550 85.0
26.28050 79.0
26.29550 64.0
26.31050 71.0
26.32550 63.0
26.34050 78.0
26.35550 64.0
26.37050 62.0
26.38550 63.0
26.40050 73.0
26.41550 71.0
26.43050 59.0
26.44550 64.0
26.46050 52.0
26.47550 63.0
26.49050 39.0
26.50550 44.0
26.52050 64.0
26.53550 51.0
26.55050 49.0
26.56550 66.0
26.58050 42.0
26.59550 59.0
26.61050 52.0
26.62550 50.0
26.64050 49.0
26.65550 40.0
26.67050 39.0
26.68550 48.0
26.70050 38.0
26.71550 38.0
26.73050 40.0
26.74550 57.0
26.76050 41.0
26.77550 38.0
26.79050 40.0
26.80550 50.0
26.82050 45.0
26.83550 38.0
26.85050 46.0
26.86550 34.0
26.88050 33.0
26.89550 47.0
26.91050 49.0
26.92550 48.0
26.94050 45.0
26.95550 39.0
26.97050 32.0
26.98550 43.0
27.00050 32.0
27.01550 45.0
27.03050 49.0
27.04550 30.0
27.06050 32.0
27.07550 42.0
27.09050 43.0