Folder: DataAnalysis/data/W6779c/XRD_2ThetaOmega

Note: data/W6779c/XRD_2ThetaOmega/W6779c_peaks.TXT
No.	Label	Pos. [°2Th.]	FWHM Left [°2Th.]	Area calc.	Assignment	h	k	l	Multiplicity	F obs.	F calc.	Area [cts*°2Th.]	Derivation	Backgr.[cts]	d-spacing [Å]	Height [cts]	K-A2 / K-A1 Ratio	Matched	Matched by	Rel. Int. [%]	Source	Status	Integral Breadth [°2Th.]
1	Cr2O3 0 0 6	39,2778(7)	0,182(3)	0,00	 	0	0	6	 	0,000000	0,000000	116,25	Pure KA1	16,79	2,29194	462(6)	0,500	False	 	5,20	Profile fitting	Included	0,251877
2	Al2O3 0 0 6	41,59996(8)	0,0518(2)	0,00	 	0	0	6	 	0,000000	0,000000	457,55	Pure KA1	19,34	2,16920	7550(29)	0,500	False	 	85,12	Profile fitting	Included	0,060606
3	Cr2O3 0 0 12	84,672(3)	0,36(2)	0,00	 	0	0	12	 	0,000000	0,000000	49,44	Pure KA1	13,24	1,14376	88(2)	0,500	False	 	1,00	Profile fitting	Included	0,558936
4	Al2O3 0 0 12	90,66559(8)	0,0706(2)	0,00	 	0	0	12	 	0,000000	0,000000	820,83	Pure KA1	22,86	1,08309	8870(29)	0,500	False	 	100,00	Profile fitting	Included	0,092540

Note: README.md
# Methods
## RSM analysis

Check out [doc](documentation/RSM.md)

File: W6779c_absolute_2th-om_10-130deg_PIXscan_17min_6.xy
10.0035 42.0
10.4072 34.0
10.811 30.0
11.2147 30.0
11.6185 24.0
12.0222 23.0
12.426 24.0
12.8298 18.0
13.2335 24.0
13.6373 31.0
14.041 28.0
14.4448 31.0
14.8485 22.0
15.2523 28.0
15.656 20.0
16.0598 32.0
16.4636 27.0
16.8673 26.0
17.2711 19.0
17.6748 22.0
18.0786 26.0
18.4823 24.0
18.8861 25.0
19.2899 26.0
19.6936 13.0
20.0974 24.0
20.5011 29.0
20.9049 24.0
21.3086 24.0
21.7124 15.0
22.1161 12.0
22.5199 25.0
22.9237 12.0
23.3274 19.0
23.7312 17.0
24.1349 21.0
24.5387 23.0
24.9424 11.0
25.3462 21.0
25.75 28.0
26.1537 13.0
26.5575 16.0
26.9612 17.0
27.365 17.0
27.7687 16.0
28.1725 17.0
28.5762 14.0
28.98 17.0
29.3838 10.0
29.7875 6.0
30.1913 22.0
30.595 14.0
30.9988 13.0
31.4025 14.0
31.8063 15.0
32.2101 11.0
32.6138 13.0
33.0176 15.0
33.4213 8.0
33.8251 14.0
34.2288 19.0
34.6326 12.0
35.0363 16.0
35.4401 8.0
35.8439 11.0
36.2476 12.0
36.6514 14.0
37.0551 18.0
37.4589 17.0
37.8626 16.0
38.2664 16.0
38.6702 35.0
39.0739 108.0
39.4777 181.0
39.8814 19.0
40.2852 12.0
40.6889 21.0
41.0927 21.0
41.4964 114.0
41.9002 52.0
42.304 19.0
42.7077 11.0
43.1115 13.0
43.5152 13.0
43.919 19.0
44.3227 25.0
44.7265 13.0
45.1303 13.0
45.534 11.0
45.9378 16.0
46.3415 8.0
46.7453 17.0
47.149 15.0
47.5528 9.0
47.9565 6.0
48.3603 12.0
48.7641 10.0
49.1678 13.0
49.5716 15.0
49.9753 13.0
50.3791 11.0
50.7828 11.0
51.1866 10.0
51.5903 9.0
51.9941 10.0
52.3979 12.0
52.8016 22.0
53.2054 17.0
53.6091 22.0
54.0129 18.0
54.4166 16.0
54.8204 14.0
55.2242 14.0
55.6279 10.0
56.0317 19.0
56.4354 16.0
56.8392 12.0
57.2429 12.0
57.6467 20.0
58.0504 14.0
58.4542 15.0
58.858 16.0
59.2617 8.0
59.6655 15.0
60.0692 12.0
60.473 18.0
60.8767 18.0
61.2805 13.0
61.6843 9.0
62.088 14.0
62.4918 16.0
62.8955 20.0
63.2993 14.0
63.703 19.0
64.1068 11.0
64.5105 17.0
64.9143 21.0
65.3181 6.0
65.7218 10.0
66.1256 18.0
66.5293 15.0
66.9331 11.0
67.3368 14.0
67.7406 11.0
68.1444 19.0
68.5481 18.0
68.9519 26.0
69.3556 8.0
69.7594 10.0
70.1631 12.0
70.5669 14.0
70.9706 15.0
71.3744 11.0
71.7782 13.0
72.1819 12.0
72.5857 11.0
72.9894 16.0
73.3932 14.0
73.7969 12.0
74.2007 14.0
74.6045 11.0
75.0082 17.0
75.412 9.0
75.8157 14.0
76.2195 17.0
76.6232 11.0
77.027 11.0
77.4307 12.0
77.8345 14.0
78.2383 15.0
78.642 15.0
79.0458 15.0
79.4495 12.0
79.8533 14.0
80.257 22.0
80.6608 17.0
81.0646 10.0
81.4683 15.0
81.8721 12.0
82.2758 19.0
82.6796 14.0
83.0833 14.0
83.4871 15.0
83.8908 26.0
84.2946 38.0
84.6984 125.0
85.1021 45.0
85.5059 31.0
85.9096 54.0
86.3134 16.0
86.7171 27.0
87.1209 17.0
87.5247 22.0
87.9284 19.0
88.3322 12.0
88.7359 13.0
89.1397 21.0
89.5434 35.0
89.9472 21.0
90.3509 79.0
90.7547 832.0
91.1585 109.0
91.5622 36.0
91.966 21.0
92.3697 18.0
92.7735 22.0
93.1772 10.0
93.581 11.0
93.9848 15.0
94.3885 12.0
94.7923 19.0
95.196 20.0
95.5998 12.0
96.0035 9.0
96.4073 15.0
96.811 13.0
97.2148 15.0
97.6186 20.0
98.0223 16.0
98.4261 7.0
98.8298 12.0
99.2336 13.0
99.6373 14.0
100.041 12.0
100.445 14.0
100.849 15.0
101.252 20.0
101.656 14.0
102.06 13.0
102.464 23.0
102.867 14.0
103.271 21.0
103.675 21.0
104.079 16.0
104.482 12.0
104.886 11.0
105.29 22.0
105.694 14.0
106.097 19.0
106.501 14.0
106.905 13.0
107.309 20.0
107.712 14.0
108.116 15.0
108.52 13.0
108.924 20.0
109.327 14.0
109.731 14.0
110.135 10.0
110.539 15.0
110.943 14.0
111.346 19.0
111.75 24.0
112.154 21.0
112.558 10.0
112.961 11.0
113.365 13.0
113.769 10.0
114.173 12.0
114.576 17.0
114.98 14.0
115.384 16.0
115.788 8.0
116.191 16.0
116.595 12.0
116.999 21.0
117.403 18.0
117.806 19.0
118.21 10.0
118.614 12.0
119.018 22.0
119.421 13.0
119.825 13.0
120.229 16.0
120.633 10.0
121.036 13.0
121.44 9.0
121.844 20.0
122.248 16.0
122.651 16.0
123.055 15.0
123.459 15.0
123.863 22.0
124.266 16.0
124.67 14.0
125.074 17.0
125.478 11.0
125.881 20.0
126.285 12.0
126.689 13.0
127.093 8.0
127.497 12.0
127.9 13.0
128.304 15.0
128.708 18.0
129.112 12.0
129.515 17.0
129.919 14.0
129.998 17.0