Folder: DataAnalysis/data/W6779c/XRD_Omega

Note: data/W6779c/XRD_Omega/W6779c_omega_peaks.TXT
No.	Label	Pos. [記mega]	FWHM Left [記mega]	Area [cts*記mega]	Backgr.[cts]	d-spacing [魔	Height [cts]	Shape Left	Status	Integral Breadth [記mega]	FWHM Right [記mega]	Shape Right	Obs. Lorentz B [記mega]	Obs. Gauss B [記mega]	Instr. Lorentz B [記mega]	Instr. Gauss B [記mega]	Crystallite Size [魔	Micro Strain [%]	Crystallite Size only [魔	Micro Strain only [%]
1	Cr2O3 0 0 6	19,6784(2)	0,2558(8)	2513,56	587,90	 	6256(18)	1,000(7)	Included	0,401767	 	 	0,399882	0,006785	0,075209	0,063711	275,931500	-0,159375	275,905300	0,816899

Note: README.md
# Methods
## RSM analysis

Check out [doc](documentation/RSM.md)

File: W6779c_Cr2O3_scan_omega_2deg_step_0.002deg0_10.xy
18.70260 565.0
18.71060 536.0
18.71860 515.0
18.72660 531.0
18.73460 593.0
18.74260 536.0
18.75060 558.0
18.75860 623.0
18.76660 578.0
18.77460 603.0
18.78260 565.0
18.79060 563.0
18.79860 578.0
18.80660 580.0
18.81460 581.0
18.82260 568.0
18.83060 628.0
18.83860 579.0
18.84660 625.0
18.85460 580.0
18.86260 650.0
18.87060 668.0
18.87860 612.0
18.88660 650.0
18.89460 625.0
18.90260 651.0
18.91060 693.0
18.91860 675.0
18.92660 652.0
18.93460 644.0
18.94260 649.0
18.95060 691.0
18.95860 700.0
18.96660 707.0
18.97460 708.0
18.98260 724.0
18.99060 763.0
18.99860 736.0
19.00660 752.0
19.01460 767.0
19.02260 807.0
19.03060 755.0
19.03860 740.0
19.04660 831.0
19.05460 787.0
19.06260 809.0
19.07060 871.0
19.07860 888.0
19.08660 874.0
19.09460 880.0
19.10260 894.0
19.11060 948.0
19.11860 942.0
19.12660 915.0
19.13460 972.0
19.14260 946.0
19.15060 978.0
19.15860 958.0
19.16660 1054.0
19.17460 1001.0
19.18260 1083.0
19.19060 1101.0
19.19860 1115.0
19.20660 1087.0
19.21460 1165.0
19.22260 1182.0
19.23060 1145.0
19.23860 1238.0
19.24660 1305.0
19.25460 1316.0
19.26260 1351.0
19.27060 1388.0
19.27860 1380.0
19.28660 1438.0
19.29460 1503.0
19.30260 1584.0
19.31060 1515.0
19.31860 1644.0
19.32660 1644.0
19.33460 1620.0
19.34260 1757.0
19.35060 1828.0
19.35860 1838.0
19.36660 1868.0
19.37460 1993.0
19.38260 2042.0
19.39060 2171.0
19.39860 2198.0
19.40660 2288.0
19.41460 2255.0
19.42260 2322.0
19.43060 2527.0
19.43860 2615.0
19.44660 2620.0
19.45460 2740.0
19.46260 2846.0
19.47060 2921.0
19.47860 3052.0
19.48660 3133.0
19.49460 3290.0
19.50260 3539.0
19.51060 3665.0
19.51860 3796.0
19.52660 3845.0
19.53460 4229.0
19.54260 4482.0
19.55060 4529.0
19.55860 4911.0
19.56660 5059.0
19.57460 5501.0
19.58260 5742.0
19.59060 6173.0
19.59860 6195.0
19.60660 6695.0
19.61460 7048.0
19.62260 7669.0
19.63060 7879.0
19.63860 8558.0
19.64660 8808.0
19.65460 9383.0
19.66260 9515.0
19.67060 9776.0
19.67860 10195.0
19.68660 10047.0
19.69460 10132.0
19.70260 10133.0
19.71060 9759.0
19.71860 9594.0
19.72660 9138.0
19.73460 8944.0
19.74260 8562.0
19.75060 8192.0
19.75860 7962.0
19.76660 7536.0
19.77460 6925.0
19.78260 6673.0
19.79060 6340.0
19.79860 6041.0
19.80660 5736.0
19.81460 5564.0
19.82260 5326.0
19.83060 4984.0
19.83860 4757.0
19.84660 4453.0
19.85460 4336.0
19.86260 4184.0
19.87060 3935.0
19.87860 3616.0
19.88660 3643.0
19.89460 3478.0
19.90260 3257.0
19.91060 3242.0
19.91860 3030.0
19.92660 2898.0
19.93460 2762.0
19.94260 2669.0
19.95060 2521.0
19.95860 2458.0
19.96660 2324.0
19.97460 2260.0
19.98260 2219.0
19.99060 2071.0
19.99860 2134.0
20.00660 2079.0
20.01460 2029.0
20.02260 1871.0
20.03060 1867.0
20.03860 1773.0
20.04660 1817.0
20.05460 1722.0
20.06260 1603.0
20.07060 1649.0
20.07860 1599.0
20.08660 1558.0
20.09460 1497.0
20.10260 1416.0
20.11060 1357.0
20.11860 1365.0
20.12660 1368.0
20.13460 1284.0
20.14260 1336.0
20.15060 1258.0
20.15860 1217.0
20.16660 1243.0
20.17460 1210.0
20.18260 1188.0
20.19060 1164.0
20.19860 1104.0
20.20660 1124.0
20.21460 1049.0
20.22260 1049.0
20.23060 1036.0
20.23860 1019.0
20.24660 1019.0
20.25460 1010.0
20.26260 965.0
20.27060 947.0
20.27860 972.0
20.28660 960.0
20.29460 920.0
20.30260 898.0
20.31060 849.0
20.31860 910.0
20.32660 907.0
20.33460 889.0
20.34260 907.0
20.35060 800.0
20.35860 770.0
20.36660 701.0
20.37460 710.0
20.38260 709.0
20.39060 677.0
20.39860 678.0
20.40660 671.0
20.41460 686.0
20.42260 683.0
20.43060 649.0
20.43860 663.0
20.44660 616.0
20.45460 622.0
20.46260 629.0
20.47060 583.0
20.47860 589.0
20.48660 600.0
20.49460 613.0
20.50260 572.0
20.51060 544.0
20.51860 570.0
20.52660 590.0
20.53460 564.0
20.54260 608.0
20.55060 544.0
20.55860 650.0
20.56660 575.0
20.57460 546.0
20.58260 519.0
20.59060 577.0
20.59860 532.0
20.60660 582.0
20.61460 516.0
20.62260 527.0
20.63060 539.0
20.63860 509.0
20.64660 507.0
20.65460 498.0
20.66260 514.0
20.67060 497.0
20.67860 491.0
20.68660 497.0