Folder: DataAnalysis/data/W6854a/XRD_2ThetaOmega

Note: data/W6854a/XRD_2ThetaOmega/W6854a_peaks.TXT
No.	Label	Pos. [°2Th.]	FWHM Left [°2Th.]	Area [cts*°2Th.]	Backgr.[cts]	d-spacing [Å]	Height [cts]	Shape Left	Status	Integral Breadth [°2Th.]	FWHM Right [°2Th.]	Shape Right	Obs. Lorentz B [°2Th.]	Obs. Gauss B [°2Th.]	Instr. Lorentz B [°2Th.]	Instr. Gauss B [°2Th.]	Crystallite Size [Å]	Micro Strain [%]	Crystallite Size only [Å]	Micro Strain only [%]
1	Cr2O3 1 1 0	35,3274(6)	0,348(2)	377,24	30,32	2,53864	841(5)	0,54(1)	Included	0,448795	 	 	0,261215	0,262507	0,073964	0,062659	494,720000	0,349291	239,363300	0,530290
2	Al2O3 1 1 0	37,72267(4)	0,05025(8)	2270,94	46,91	2,38277	38163(66)	0,314(2)	Included	0,059507	 	 	0,020773	0,045294	0,073930	0,062631	-1754,750000	-0,055248	29493,940000	0,004039
3	Cr2O3 2 2 0	74,902(7)	0,96(3)	49,95	8,31	1,26676	33(1)	1,00(7)	Included	1,502269	 	 	1,495220	0,025370	0,081139	0,068738	78,629910	-0,036392	78,629520	0,805524
4	Al2O3 2 2 0	80,65799(8)	0,0661(2)	733,34	20,78	1,19025	8652(29)	0,528(5)	Included	0,084755	 	 	0,048092	0,050567	0,084082	0,071230	-3217,256000	-0,025785	36611,210000	0,001626

Note: README.md
# Methods
## RSM analysis

Check out [doc](documentation/RSM.md)

File: W6854a_absolute_2th-om_10-130deg_PIXscan_17min_11.xy
10.0035 23.0
10.4072 32.0
10.811 19.0
11.2147 33.0
11.6185 17.0
12.0222 22.0
12.426 21.0
12.8298 25.0
13.2335 17.0
13.6373 11.0
14.041 19.0
14.4448 16.0
14.8485 15.0
15.2523 21.0
15.656 20.0
16.0598 18.0
16.4636 9.0
16.8673 26.0
17.2711 11.0
17.6748 13.0
18.0786 15.0
18.4823 21.0
18.8861 21.0
19.2899 16.0
19.6936 17.0
20.0974 10.0
20.5011 17.0
20.9049 14.0
21.3086 18.0
21.7124 11.0
22.1161 13.0
22.5199 9.0
22.9237 11.0
23.3274 11.0
23.7312 10.0
24.1349 14.0
24.5387 6.0
24.9424 8.0
25.3462 15.0
25.75 16.0
26.1537 10.0
26.5575 16.0
26.9612 12.0
27.365 16.0
27.7687 14.0
28.1725 10.0
28.5762 8.0
28.98 7.0
29.3838 14.0
29.7875 10.0
30.1913 13.0
30.595 14.0
30.9988 9.0
31.4025 13.0
31.8063 15.0
32.2101 14.0
32.6138 9.0
33.0176 4.0
33.4213 13.0
33.8251 19.0
34.2288 18.0
34.6326 31.0
35.0363 202.0
35.4401 928.0
35.8439 198.0
36.2476 74.0
36.6514 48.0
37.0551 41.0
37.4589 109.0
37.8626 3355.0
38.2664 118.0
38.6702 56.0
39.0739 29.0
39.4777 15.0
39.8814 14.0
40.2852 19.0
40.6889 14.0
41.0927 13.0
41.4964 10.0
41.9002 18.0
42.304 15.0
42.7077 9.0
43.1115 15.0
43.5152 16.0
43.919 13.0
44.3227 15.0
44.7265 13.0
45.1303 13.0
45.534 13.0
45.9378 15.0
46.3415 6.0
46.7453 12.0
47.149 10.0
47.5528 12.0
47.9565 9.0
48.3603 16.0
48.7641 10.0
49.1678 16.0
49.5716 8.0
49.9753 11.0
50.3791 12.0
50.7828 8.0
51.1866 12.0
51.5903 15.0
51.9941 11.0
52.3979 12.0
52.8016 5.0
53.2054 11.0
53.6091 18.0
54.0129 12.0
54.4166 9.0
54.8204 11.0
55.2242 16.0
55.6279 12.0
56.0317 12.0
56.4354 4.0
56.8392 10.0
57.2429 10.0
57.6467 9.0
58.0504 10.0
58.4542 11.0
58.858 13.0
59.2617 6.0
59.6655 8.0
60.0692 14.0
60.473 13.0
60.8767 7.0
61.2805 17.0
61.6843 9.0
62.088 18.0
62.4918 10.0
62.8955 10.0
63.2993 12.0
63.703 9.0
64.1068 11.0
64.5105 14.0
64.9143 16.0
65.3181 12.0
65.7218 16.0
66.1256 10.0
66.5293 18.0
66.9331 15.0
67.3368 17.0
67.7406 24.0
68.1444 11.0
68.5481 16.0
68.9519 10.0
69.3556 8.0
69.7594 12.0
70.1631 11.0
70.5669 17.0
70.9706 5.0
71.3744 17.0
71.7782 18.0
72.1819 10.0
72.5857 7.0
72.9894 19.0
73.3932 10.0
73.7969 17.0
74.2007 27.0
74.6045 53.0
75.0082 37.0
75.412 38.0
75.8157 23.0
76.2195 21.0
76.6232 31.0
77.027 12.0
77.4307 23.0
77.8345 10.0
78.2383 13.0
78.642 14.0
79.0458 21.0
79.4495 26.0
79.8533 23.0
80.257 82.0
80.6608 8450.0
81.0646 108.0
81.4683 52.0
81.8721 26.0
82.2758 26.0
82.6796 20.0
83.0833 19.0
83.4871 13.0
83.8908 19.0
84.2946 11.0
84.6984 6.0
85.1021 10.0
85.5059 10.0
85.9096 12.0
86.3134 13.0
86.7171 8.0
87.1209 9.0
87.5247 15.0
87.9284 12.0
88.3322 15.0
88.7359 15.0
89.1397 20.0
89.5434 16.0
89.9472 13.0
90.3509 14.0
90.7547 15.0
91.1585 8.0
91.5622 8.0
91.966 22.0
92.3697 11.0
92.7735 12.0
93.1772 11.0
93.581 13.0
93.9848 9.0
94.3885 13.0
94.7923 12.0
95.196 14.0
95.5998 10.0
96.0035 13.0
96.4073 9.0
96.811 10.0
97.2148 10.0
97.6186 8.0
98.0223 8.0
98.4261 11.0
98.8298 13.0
99.2336 14.0
99.6373 12.0
100.041 11.0
100.445 12.0
100.849 10.0
101.252 10.0
101.656 15.0
102.06 16.0
102.464 14.0
102.867 14.0
103.271 12.0
103.675 10.0
104.079 11.0
104.482 8.0
104.886 16.0
105.29 16.0
105.694 14.0
106.097 21.0
106.501 14.0
106.905 12.0
107.309 16.0
107.712 16.0
108.116 14.0
108.52 10.0
108.924 16.0
109.327 15.0
109.731 15.0
110.135 23.0
110.539 18.0
110.943 13.0
111.346 15.0
111.75 13.0
112.154 7.0
112.558 11.0
112.961 12.0
113.365 11.0
113.769 18.0
114.173 23.0
114.576 17.0
114.98 17.0
115.384 15.0
115.788 9.0
116.191 11.0
116.595 11.0
116.999 12.0
117.403 15.0
117.806 12.0
118.21 20.0
118.614 23.0
119.018 10.0
119.421 12.0
119.825 12.0
120.229 11.0
120.633 10.0
121.036 8.0
121.44 9.0
121.844 14.0
122.248 18.0
122.651 34.0
123.055 16.0
123.459 15.0
123.863 14.0
124.266 18.0
124.67 9.0
125.074 12.0
125.478 9.0
125.881 17.0
126.285 13.0
126.689 11.0
127.093 14.0
127.497 18.0
127.9 15.0
128.304 18.0
128.708 17.0
129.112 18.0
129.515 11.0
129.919 17.0
129.998 19.0