Folder: DataAnalysis/data/W6906a/XRD_Omega

Note: data/W6906a/XRD_Omega/W6906a_omega_peaks.TXT
No.	Label	Pos. [記mega]	FWHM Left [記mega]	Area [cts*記mega]	Backgr.[cts]	d-spacing [魔	Height [cts]	Shape Left	Status	Integral Breadth [記mega]	FWHM Right [記mega]	Shape Right	Obs. Lorentz B [記mega]	Obs. Gauss B [記mega]	Instr. Lorentz B [記mega]	Instr. Gauss B [記mega]	Crystallite Size [魔	Micro Strain [%]	Crystallite Size only [魔	Micro Strain only [%]
1	Cr2O3 1 1 0	18,2052(3)	0,253(1)	757,23	57,39	 	2225(8)	0,644(6)	Included	0,340379	 	 	0,231172	0,171384	0,075410	0,063881	573,923800	0,433101	328,785300	0,740461

Note: README.md
# Methods
## RSM analysis

Check out [doc](documentation/RSM.md)

File: scan_omega_4deg_step_0.005deg0_C7_1.xy
16.23490 67.0
16.24990 54.0
16.26490 56.0
16.27990 49.0
16.29490 61.0
16.30990 71.0
16.32490 61.0
16.33990 60.0
16.35490 64.0
16.36990 63.0
16.38490 57.0
16.39990 57.0
16.41490 65.0
16.42990 62.0
16.44490 54.0
16.45990 64.0
16.47490 62.0
16.48990 61.0
16.50490 65.0
16.51990 52.0
16.53490 57.0
16.54990 72.0
16.56490 67.0
16.57990 59.0
16.59490 58.0
16.60990 56.0
16.62490 56.0
16.63990 58.0
16.65490 56.0
16.66990 65.0
16.68490 49.0
16.69990 71.0
16.71490 69.0
16.72990 60.0
16.74490 59.0
16.75990 59.0
16.77490 62.0
16.78990 55.0
16.80490 55.0
16.81990 66.0
16.83490 61.0
16.84990 74.0
16.86490 71.0
16.87990 74.0
16.89490 70.0
16.90990 69.0
16.92490 54.0
16.93990 58.0
16.95490 65.0
16.96990 51.0
16.98490 65.0
16.99990 61.0
17.01490 61.0
17.02990 63.0
17.04490 56.0
17.05990 64.0
17.07490 61.0
17.08990 64.0
17.10490 74.0
17.11990 70.0
17.13490 84.0
17.14990 79.0
17.16490 68.0
17.17990 64.0
17.19490 57.0
17.20990 69.0
17.22490 63.0
17.23990 72.0
17.25490 60.0
17.26990 65.0
17.28490 73.0
17.29990 69.0
17.31490 64.0
17.32990 70.0
17.34490 83.0
17.35990 83.0
17.37490 92.0
17.38990 80.0
17.40490 84.0
17.41990 100.0
17.43490 83.0
17.44990 91.0
17.46490 92.0
17.47990 82.0
17.49490 88.0
17.50990 82.0
17.52490 102.0
17.53990 95.0
17.55490 97.0
17.56990 109.0
17.58490 113.0
17.59990 118.0
17.61490 142.0
17.62990 130.0
17.64490 118.0
17.65990 137.0
17.67490 136.0
17.68990 163.0
17.70490 151.0
17.71990 192.0
17.73490 156.0
17.74990 205.0
17.76490 199.0
17.77990 212.0
17.79490 218.0
17.80990 268.0
17.82490 312.0
17.83990 305.0
17.85490 305.0
17.86990 365.0
17.88490 344.0
17.89990 407.0
17.91490 500.0
17.92990 508.0
17.94490 558.0
17.95990 571.0
17.97490 676.0
17.98990 720.0
18.00490 869.0
18.01990 922.0
18.03490 993.0
18.04990 1084.0
18.06490 1135.0
18.07990 1360.0
18.09490 1669.0
18.10990 1951.0
18.12490 2246.0
18.13990 2386.0
18.15490 2709.0
18.16990 3095.0
18.18490 3320.0
18.19990 3272.0
18.21490 3391.0
18.22990 3409.0
18.24490 3341.0
18.25990 3123.0
18.27490 2971.0
18.28990 2720.0
18.30490 2454.0
18.31990 2197.0
18.33490 1985.0
18.34990 1618.0
18.36490 1267.0
18.37990 1132.0
18.39490 1017.0
18.40990 914.0
18.42490 918.0
18.43990 750.0
18.45490 720.0
18.46990 630.0
18.48490 582.0
18.49990 548.0
18.51490 478.0
18.52990 447.0
18.54490 418.0
18.55990 414.0
18.57490 340.0
18.58990 326.0
18.60490 289.0
18.61990 234.0
18.63490 240.0
18.64990 239.0
18.66490 203.0
18.67990 196.0
18.69490 163.0
18.70990 175.0
18.72490 177.0
18.73990 149.0
18.75490 160.0
18.76990 131.0
18.78490 141.0
18.79990 135.0
18.81490 123.0
18.82990 94.0
18.84490 105.0
18.85990 115.0
18.87490 118.0
18.88990 105.0
18.90490 121.0
18.91990 107.0
18.93490 81.0
18.94990 105.0
18.96490 92.0
18.97990 107.0
18.99490 84.0
19.00990 78.0
19.02490 64.0
19.03990 71.0
19.05490 71.0
19.06990 85.0
19.08490 83.0
19.09990 84.0
19.11490 75.0
19.12990 62.0
19.14490 57.0
19.15990 74.0
19.17490 64.0
19.18990 65.0
19.20490 56.0
19.21990 71.0
19.23490 72.0
19.24990 51.0
19.26490 64.0
19.27990 80.0
19.29490 59.0
19.30990 55.0
19.32490 54.0
19.33990 61.0
19.35490 58.0
19.36990 51.0
19.38490 65.0
19.39990 56.0
19.41490 71.0
19.42990 52.0
19.44490 65.0
19.45990 57.0
19.47490 49.0
19.48990 66.0
19.50490 59.0
19.51990 52.0
19.53490 53.0
19.54990 48.0
19.56490 51.0
19.57990 64.0
19.59490 46.0
19.60990 58.0
19.62490 52.0
19.63990 47.0
19.65490 60.0
19.66990 57.0
19.68490 46.0
19.69990 52.0
19.71490 55.0
19.72990 52.0
19.74490 47.0
19.75990 75.0
19.77490 47.0
19.78990 64.0
19.80490 39.0
19.81990 69.0
19.83490 59.0
19.84990 63.0
19.86490 36.0
19.87990 59.0
19.89490 56.0
19.90990 46.0
19.92490 61.0
19.93990 51.0
19.95490 53.0
19.96990 43.0
19.98490 60.0
19.99990 48.0
20.01490 59.0
20.02990 47.0
20.04490 40.0
20.05990 47.0
20.07490 51.0
20.08990 38.0
20.10490 49.0
20.11990 57.0
20.13490 57.0
20.14990 62.0
20.16490 40.0
20.17990 55.0
20.19490 52.0