Folder: DataAnalysis/data/W6906a/XRD_2ThetaOmega

Note: data/W6906a/XRD_2ThetaOmega/W6906a_peaks.TXT
No.	Label	Pos. [°2Th.]	FWHM Left [°2Th.]	Area [cts*°2Th.]	Backgr.[cts]	d-spacing [Å]	Height [cts]	Shape Left	Status	Integral Breadth [°2Th.]	FWHM Right [°2Th.]	Shape Right	Obs. Lorentz B [°2Th.]	Obs. Gauss B [°2Th.]	Instr. Lorentz B [°2Th.]	Instr. Gauss B [°2Th.]	Crystallite Size [Å]	Micro Strain [%]	Crystallite Size only [Å]	Micro Strain only [%]
1	Cr2O3 1 1 0	36,1502(5)	0,307(2)	597,12	167,32	2,48273	1372(7)	0,77(1)	Included	0,435094	 	 	0,346283	0,170802	0,073947	0,062645	340,946000	0,212437	252,675900	0,491287
2	Al2O3 1 1 0	37,72191(1)	0,04912(2)	23438,05	169,21	2,38282	398515(216)	0,3445(7)	Included	0,058814	 	 	0,022425	0,043393	0,073930	0,062631	-1811,025000	-0,057686	29493,870000	0,004040

Note: README.md
# Methods
## RSM analysis

Check out [doc](documentation/RSM.md)

File: w6906a_scan_2th-om_a_Cr2O3_30-40deg_PIXscan_4min.xy
30.0025 112.0
30.0369 125.0
30.0714 158.0
30.1059 129.0
30.1403 150.0
30.1748 132.0
30.2093 137.0
30.2437 135.0
30.2782 128.0
30.3127 124.0
30.3471 140.0
30.3816 116.0
30.4161 138.0
30.4505 129.0
30.485 132.0
30.5195 116.0
30.5539 124.0
30.5884 140.0
30.6229 122.0
30.6573 115.0
30.6918 138.0
30.7263 152.0
30.7607 131.0
30.7952 137.0
30.8297 131.0
30.8641 122.0
30.8986 111.0
30.9331 143.0
30.9675 138.0
31.002 115.0
31.0365 134.0
31.0709 134.0
31.1054 130.0
31.1399 131.0
31.1743 143.0
31.2088 124.0
31.2433 128.0
31.2777 120.0
31.3122 119.0
31.3467 132.0
31.3811 137.0
31.4156 117.0
31.4501 117.0
31.4845 135.0
31.519 133.0
31.5535 125.0
31.5879 125.0
31.6224 151.0
31.6569 124.0
31.6913 142.0
31.7258 141.0
31.7603 150.0
31.7947 127.0
31.8292 128.0
31.8637 133.0
31.8981 117.0
31.9326 140.0
31.9671 124.0
32.0015 120.0
32.036 123.0
32.0705 126.0
32.1049 114.0
32.1394 141.0
32.1739 138.0
32.2083 144.0
32.2428 134.0
32.2773 124.0
32.3118 130.0
32.3462 128.0
32.3807 121.0
32.4152 137.0
32.4496 124.0
32.4841 120.0
32.5186 137.0
32.553 148.0
32.5875 132.0
32.622 134.0
32.6564 126.0
32.6909 137.0
32.7254 136.0
32.7598 128.0
32.7943 105.0
32.8288 137.0
32.8632 129.0
32.8977 135.0
32.9322 146.0
32.9666 135.0
33.0011 117.0
33.0356 121.0
33.07 118.0
33.1045 124.0
33.139 145.0
33.1734 100.0
33.2079 139.0
33.2424 156.0
33.2768 121.0
33.3113 133.0
33.3458 132.0
33.3802 125.0
33.4147 153.0
33.4492 124.0
33.4836 139.0
33.5181 138.0
33.5526 133.0
33.587 121.0
33.6215 124.0
33.656 120.0
33.6904 135.0
33.7249 153.0
33.7594 167.0
33.7938 149.0
33.8283 133.0
33.8628 147.0
33.8972 232.0
33.9317 624.0
33.9662 1312.0
34.0006 665.0
34.0351 220.0
34.0696 176.0
34.104 187.0
34.1385 181.0
34.173 161.0
34.2074 161.0
34.2419 154.0
34.2764 136.0
34.3108 143.0
34.3453 130.0
34.3798 132.0
34.4142 161.0
34.4487 138.0
34.4832 146.0
34.5176 158.0
34.5521 138.0
34.5866 135.0
34.621 137.0
34.6555 152.0
34.69 145.0
34.7244 167.0
34.7589 162.0
34.7934 172.0
34.8278 167.0
34.8623 138.0
34.8968 158.0
34.9312 147.0
34.9657 166.0
35.0002 135.0
35.0346 178.0
35.0691 155.0
35.1036 171.0
35.138 144.0
35.1725 193.0
35.207 157.0
35.2414 173.0
35.2759 158.0
35.3104 175.0
35.3448 166.0
35.3793 184.0
35.4138 145.0
35.4482 183.0
35.4827 189.0
35.5172 175.0
35.5516 201.0
35.5861 222.0
35.6206 209.0
35.655 229.0
35.6895 204.0
35.724 232.0
35.7584 228.0
35.7929 261.0
35.8274 320.0
35.8619 393.0
35.8963 494.0
35.9308 763.0
35.9653 920.0
35.9997 1169.0
36.0342 1405.0
36.0687 1690.0
36.1031 1858.0
36.1376 1999.0
36.1721 2091.0
36.2065 1979.0
36.241 1848.0
36.2755 1652.0
36.3099 1362.0
36.3444 1179.0
36.3789 924.0
36.4133 775.0
36.4478 559.0
36.4823 477.0
36.5167 400.0
36.5512 404.0
36.5857 342.0
36.6201 369.0
36.6546 376.0
36.6891 377.0
36.7235 364.0
36.758 450.0
36.7925 451.0
36.8269 426.0
36.8614 465.0
36.8959 461.0
36.9303 473.0
36.9648 507.0
36.9993 515.0
37.0337 559.0
37.0682 645.0
37.1027 591.0
37.1371 643.0
37.1716 682.0
37.2061 722.0
37.2405 796.0
37.275 806.0
37.3095 913.0
37.3439 1062.0
37.3784 1146.0
37.4129 1242.0
37.4473 1458.0
37.4818 1787.0
37.5163 3092.0
37.5507 5019.0
37.5852 5230.0
37.6197 6436.0
37.6541 14281.0
37.6886 125643.0
37.7231 359047.0
37.7575 99983.0
37.792 113440.0
37.8265 178184.0
37.8609 32428.0
37.8954 7491.0
37.9299 4200.0
37.9643 2875.0
37.9988 2160.0
38.0333 1729.0
38.0677 1433.0
38.1022 1237.0
38.1367 1084.0
38.1711 925.0
38.2056 827.0
38.2401 715.0
38.2745 624.0
38.309 571.0
38.3435 508.0
38.3779 500.0
38.4124 431.0
38.4469 393.0
38.4813 408.0
38.5158 344.0
38.5503 293.0
38.5847 287.0
38.6192 272.0
38.6537 271.0
38.6881 269.0
38.7226 223.0
38.7571 220.0
38.7915 222.0
38.826 179.0
38.8605 198.0
38.8949 169.0
38.9294 205.0
38.9639 171.0
38.9983 183.0
39.0328 149.0
39.0673 186.0
39.1017 162.0
39.1362 182.0
39.1707 177.0
39.2051 176.0
39.2396 151.0
39.2741 174.0
39.3085 166.0
39.343 137.0
39.3775 157.0
39.412 157.0
39.4464 173.0
39.4809 144.0
39.5154 194.0
39.5498 123.0
39.5843 151.0
39.6188 142.0
39.6532 155.0
39.6877 159.0
39.7222 159.0
39.7566 150.0
39.7911 161.0
39.8256 132.0
39.86 131.0
39.8945 153.0
39.929 149.0
39.9634 138.0
39.9979 132.0