Folder: DataAnalysis/data/W6905r/XRD_2ThetaOmega

Note: data/W6905r/XRD_2ThetaOmega/W6905r_peaks.TXT
No.	Label	Pos. [°2Th.]	FWHM Left [°2Th.]	Area [cts*°2Th.]	Backgr.[cts]	d-spacing [Å]	Height [cts]	Shape Left	Status	Integral Breadth [°2Th.]	FWHM Right [°2Th.]	Shape Right	Obs. Lorentz B [°2Th.]	Obs. Gauss B [°2Th.]	Instr. Lorentz B [°2Th.]	Instr. Gauss B [°2Th.]	Crystallite Size [Å]	Micro Strain [%]	Crystallite Size only [Å]	Micro Strain only [%]
1	Cr2O3 0 2 4	49,8096(7)	0,449(2)	646,11	178,34	1,82920	1112(5)	0,55(1)	Included	0,580791	 	 	0,342063	0,336468	0,074522	0,063133	363,755800	0,310593	186,837500	0,489517
2	Al2O3 0 2 4	52,50495(1)	0,05475(3)	30099,02	197,69	1,74147	445407(223)	0,4267(7)	Included	0,067577	 	 	0,031487	0,045622	0,074847	0,063409	-2269,865000	-0,038960	31120,150000	0,002798

Note: README.md
# Methods
## RSM analysis

Check out [doc](documentation/RSM.md)

File: scan_2th-om_r2_Cr2O3_45-55deg_PIXscan_5min_C6.xy
45.0025 113.0
45.0369 129.0
45.0714 126.0
45.1059 108.0
45.1403 123.0
45.1748 104.0
45.2093 119.0
45.2437 138.0
45.2782 117.0
45.3127 118.0
45.3471 102.0
45.3816 102.0
45.4161 111.0
45.4505 121.0
45.485 116.0
45.5195 117.0
45.5539 111.0
45.5884 123.0
45.6229 98.0
45.6573 126.0
45.6918 105.0
45.7263 135.0
45.7607 119.0
45.7952 110.0
45.8297 100.0
45.8641 136.0
45.8986 98.0
45.9331 129.0
45.9675 125.0
46.002 125.0
46.0365 106.0
46.0709 120.0
46.1054 114.0
46.1399 118.0
46.1743 115.0
46.2088 109.0
46.2433 120.0
46.2777 125.0
46.3122 118.0
46.3467 106.0
46.3811 115.0
46.4156 104.0
46.4501 123.0
46.4845 103.0
46.519 105.0
46.5535 94.0
46.5879 119.0
46.6224 110.0
46.6569 136.0
46.6913 144.0
46.7258 115.0
46.7603 140.0
46.7947 121.0
46.8292 133.0
46.8637 120.0
46.8981 138.0
46.9326 120.0
46.9671 149.0
47.0015 166.0
47.036 208.0
47.0705 595.0
47.1049 1551.0
47.1394 1313.0
47.1739 733.0
47.2083 560.0
47.2428 283.0
47.2773 193.0
47.3118 188.0
47.3462 170.0
47.3807 149.0
47.4152 104.0
47.4496 151.0
47.4841 158.0
47.5186 151.0
47.553 126.0
47.5875 133.0
47.622 146.0
47.6564 128.0
47.6909 130.0
47.7254 133.0
47.7598 127.0
47.7943 125.0
47.8288 124.0
47.8632 129.0
47.8977 143.0
47.9322 138.0
47.9666 136.0
48.0011 119.0
48.0356 133.0
48.07 106.0
48.1045 134.0
48.139 140.0
48.1734 143.0
48.2079 131.0
48.2424 130.0
48.2768 147.0
48.3113 132.0
48.3458 140.0
48.3802 136.0
48.4147 130.0
48.4492 144.0
48.4836 140.0
48.5181 139.0
48.5526 116.0
48.587 164.0
48.6215 142.0
48.656 142.0
48.6904 140.0
48.7249 155.0
48.7594 159.0
48.7938 161.0
48.8283 119.0
48.8628 143.0
48.8972 158.0
48.9317 165.0
48.9662 159.0
49.0006 178.0
49.0351 190.0
49.0696 203.0
49.104 212.0
49.1385 187.0
49.173 202.0
49.2074 207.0
49.2419 271.0
49.2764 242.0
49.3108 267.0
49.3453 295.0
49.3798 373.0
49.4142 381.0
49.4487 449.0
49.4832 490.0
49.5176 617.0
49.5521 690.0
49.5866 803.0
49.621 1040.0
49.6555 1245.0
49.69 1414.0
49.7244 1504.0
49.7589 1716.0
49.7934 1700.0
49.8278 1758.0
49.8623 1775.0
49.8968 1702.0
49.9312 1592.0
49.9657 1455.0
50.0002 1360.0
50.0346 1191.0
50.0691 1021.0
50.1036 918.0
50.138 840.0
50.1725 710.0
50.207 652.0
50.2414 497.0
50.2759 486.0
50.3104 459.0
50.3448 399.0
50.3793 323.0
50.4138 343.0
50.4482 279.0
50.4827 270.0
50.5172 282.0
50.5516 262.0
50.5861 264.0
50.6206 263.0
50.655 227.0
50.6895 219.0
50.724 235.0
50.7584 209.0
50.7929 220.0
50.8274 226.0
50.8619 235.0
50.8963 228.0
50.9308 232.0
50.9653 218.0
50.9997 286.0
51.0342 279.0
51.0687 292.0
51.1031 303.0
51.1376 291.0
51.1721 325.0
51.2065 330.0
51.241 348.0
51.2755 408.0
51.3099 384.0
51.3444 393.0
51.3789 370.0
51.4133 424.0
51.4478 434.0
51.4823 489.0
51.5167 447.0
51.5512 487.0
51.5857 526.0
51.6201 548.0
51.6546 589.0
51.6891 549.0
51.7235 579.0
51.758 608.0
51.7925 694.0
51.8269 717.0
51.8614 743.0
51.8959 773.0
51.9303 794.0
51.9648 885.0
51.9993 898.0
52.0337 986.0
52.0682 1130.0
52.1027 1362.0
52.1371 1487.0
52.1716 1803.0
52.2061 2665.0
52.2405 3974.0
52.275 5008.0
52.3095 4748.0
52.3439 5077.0
52.3784 7112.0
52.4129 13062.0
52.4473 37628.0
52.4818 308434.0
52.5163 399785.0
52.5507 77927.0
52.5852 32573.0
52.6197 143592.0
52.6541 203043.0
52.6886 48748.0
52.7231 11865.0
52.7575 6297.0
52.792 4218.0
52.8265 3379.0
52.8609 2587.0
52.8954 2089.0
52.9299 1848.0
52.9643 1464.0
52.9988 1343.0
53.0333 1212.0
53.0677 1027.0
53.1022 927.0
53.1367 879.0
53.1711 741.0
53.2056 771.0
53.2401 680.0
53.2745 688.0
53.309 587.0
53.3435 553.0
53.3779 522.0
53.4124 509.0
53.4469 439.0
53.4813 438.0
53.5158 366.0
53.5503 344.0
53.5847 314.0
53.6192 337.0
53.6537 303.0
53.6881 297.0
53.7226 299.0
53.7571 286.0
53.7915 202.0
53.826 225.0
53.8605 227.0
53.8949 197.0
53.9294 194.0
53.9639 213.0
53.9983 196.0
54.0328 190.0
54.0673 196.0
54.1017 179.0
54.1362 166.0
54.1707 149.0
54.2051 158.0
54.2396 161.0
54.2741 161.0
54.3085 171.0
54.343 156.0
54.3775 176.0
54.412 169.0
54.4464 169.0
54.4809 140.0
54.5154 159.0
54.5498 169.0
54.5843 160.0
54.6188 134.0
54.6532 145.0
54.6877 141.0
54.7222 137.0
54.7566 132.0
54.7911 159.0
54.8256 134.0
54.86 150.0
54.8945 147.0
54.929 148.0
54.9634 138.0
54.9979 165.0