Folder: DataAnalysis/data/W6905r/XRD_Omega

Note: data/W6905r/XRD_Omega/W6905r_omega_peaks.TXT
No.	Label	Pos. [記mega]	FWHM Left [記mega]	Area [cts*記mega]	Backgr.[cts]	d-spacing [魔	Height [cts]	Shape Left	Status	Integral Breadth [記mega]	FWHM Right [記mega]	Shape Right	Obs. Lorentz B [記mega]	Obs. Gauss B [記mega]	Instr. Lorentz B [記mega]	Instr. Gauss B [記mega]	Crystallite Size [魔	Micro Strain [%]	Crystallite Size only [魔	Micro Strain only [%]
1	Cr2O3 0 2 4	24,883(1)	1,123(4)	729,57	65,15	 	551(2)	0,300(8)	Included	1,323838	 	 	0,443112	1,021341	0,074610	0,063204	245,296600	2,016080	71,367720	2,504957

Note: README.md
# Methods
## RSM analysis

Check out [doc](documentation/RSM.md)

File: scan_omega_4deg_step_0.005deg0_C6.xy
22.94010 73.0
22.95510 77.0
22.97010 57.0
22.98510 62.0
23.00010 73.0
23.01510 72.0
23.03010 67.0
23.04510 88.0
23.06010 71.0
23.07510 65.0
23.09010 101.0
23.10510 96.0
23.12010 83.0
23.13510 78.0
23.15010 92.0
23.16510 108.0
23.18010 81.0
23.19510 76.0
23.21010 85.0
23.22510 82.0
23.24010 67.0
23.25510 81.0
23.27010 109.0
23.28510 77.0
23.30010 91.0
23.31510 89.0
23.33010 88.0
23.34510 89.0
23.36010 95.0
23.37510 101.0
23.39010 93.0
23.40510 111.0
23.42010 104.0
23.43510 109.0
23.45010 93.0
23.46510 89.0
23.48010 110.0
23.49510 103.0
23.51010 112.0
23.52510 93.0
23.54010 98.0
23.55510 120.0
23.57010 106.0
23.58510 117.0
23.60010 135.0
23.61510 117.0
23.63010 128.0
23.64510 131.0
23.66010 139.0
23.67510 134.0
23.69010 120.0
23.70510 139.0
23.72010 133.0
23.73510 166.0
23.75010 124.0
23.76510 174.0
23.78010 133.0
23.79510 146.0
23.81010 136.0
23.82510 177.0
23.84010 198.0
23.85510 168.0
23.87010 173.0
23.88510 196.0
23.90010 193.0
23.91510 210.0
23.93010 199.0
23.94510 218.0
23.96010 217.0
23.97510 214.0
23.99010 243.0
24.00510 232.0
24.02010 227.0
24.03510 263.0
24.05010 281.0
24.06510 286.0
24.08010 283.0
24.09510 256.0
24.11010 290.0
24.12510 296.0
24.14010 290.0
24.15510 316.0
24.17010 317.0
24.18510 334.0
24.20010 359.0
24.21510 359.0
24.23010 339.0
24.24510 384.0
24.26010 362.0
24.27510 418.0
24.29010 428.0
24.30510 457.0
24.32010 455.0
24.33510 438.0
24.35010 494.0
24.36510 494.0
24.38010 477.0
24.39510 507.0
24.41010 528.0
24.42510 545.0
24.44010 601.0
24.45510 577.0
24.47010 584.0
24.48510 604.0
24.50010 619.0
24.51510 615.0
24.53010 647.0
24.54510 666.0
24.56010 757.0
24.57510 704.0
24.59010 747.0
24.60510 735.0
24.62010 808.0
24.63510 743.0
24.65010 756.0
24.66510 782.0
24.68010 811.0
24.69510 781.0
24.71010 785.0
24.72510 867.0
24.74010 818.0
24.75510 827.0
24.77010 855.0
24.78510 908.0
24.80010 871.0
24.81510 903.0
24.83010 869.0
24.84510 883.0
24.86010 874.0
24.87510 859.0
24.89010 953.0
24.90510 861.0
24.92010 954.0
24.93510 929.0
24.95010 890.0
24.96510 948.0
24.98010 931.0
24.99510 949.0
25.01010 927.0
25.02510 919.0
25.04010 956.0
25.05510 862.0
25.07010 884.0
25.08510 855.0
25.10010 851.0
25.11510 814.0
25.13010 816.0
25.14510 825.0
25.16010 788.0
25.17510 755.0
25.19010 712.0
25.20510 741.0
25.22010 613.0
25.23510 669.0
25.25010 628.0
25.26510 667.0
25.28010 593.0
25.29510 681.0
25.31010 599.0
25.32510 648.0
25.34010 578.0
25.35510 568.0
25.37010 566.0
25.38510 556.0
25.40010 514.0
25.41510 526.0
25.43010 526.0
25.44510 511.0
25.46010 425.0
25.47510 446.0
25.49010 454.0
25.50510 418.0
25.52010 427.0
25.53510 406.0
25.55010 368.0
25.56510 365.0
25.58010 357.0
25.59510 335.0
25.61010 336.0
25.62510 339.0
25.64010 301.0
25.65510 303.0
25.67010 317.0
25.68510 323.0
25.70010 264.0
25.71510 287.0
25.73010 254.0
25.74510 288.0
25.76010 234.0
25.77510 248.0
25.79010 241.0
25.80510 254.0
25.82010 199.0
25.83510 231.0
25.85010 229.0
25.86510 198.0
25.88010 209.0
25.89510 168.0
25.91010 194.0
25.92510 181.0
25.94010 159.0
25.95510 165.0
25.97010 167.0
25.98510 155.0
26.00010 151.0
26.01510 143.0
26.03010 157.0
26.04510 137.0
26.06010 141.0
26.07510 137.0
26.09010 126.0
26.10510 137.0
26.12010 136.0
26.13510 97.0
26.15010 130.0
26.16510 115.0
26.18010 132.0
26.19510 122.0
26.21010 113.0
26.22510 108.0
26.24010 111.0
26.25510 99.0
26.27010 91.0
26.28510 122.0
26.30010 89.0
26.31510 90.0
26.33010 96.0
26.34510 98.0
26.36010 97.0
26.37510 103.0
26.39010 82.0
26.40510 83.0
26.42010 104.0
26.43510 90.0
26.45010 112.0
26.46510 85.0
26.48010 85.0
26.49510 92.0
26.51010 56.0
26.52510 79.0
26.54010 83.0
26.55510 89.0
26.57010 75.0
26.58510 75.0
26.60010 81.0
26.61510 79.0
26.63010 81.0
26.64510 68.0
26.66010 83.0
26.67510 56.0
26.69010 74.0
26.70510 71.0
26.72010 75.0
26.73510 84.0
26.75010 63.0
26.76510 79.0
26.78010 84.0
26.79510 65.0
26.81010 61.0
26.82510 70.0
26.84010 53.0
26.85510 62.0
26.87010 66.0
26.88510 82.0
26.90010 75.0