Folder: DataAnalysis/data/W6819/XRD_Omega

Note: data/W6819/XRD_Omega/W6819_omega_peaks.TXT
No.	Pos. [記mega]	FWHM Left [記mega]	Area [cts*記mega]	Backgr.[cts]	d-spacing [魔	Height [cts]	Shape Left	Status	Integral Breadth [記mega]	FWHM Right [記mega]	Shape Right	Obs. Lorentz B [記mega]	Obs. Gauss B [記mega]	Instr. Lorentz B [記mega]	Instr. Gauss B [記mega]	Crystallite Size [魔	Micro Strain [%]	Crystallite Size only [魔	Micro Strain only [%]
1	19,343(2)	0,44(2)	457,69	488,48	 	944(21)	0,1(5)	Included	0,484740	 	 	0,055702	0,448756	0,075254	0,063749	-4579,681000	1,137301	201,556500	1,137428

Note: README.md
# Methods
## RSM analysis

Check out [doc](documentation/RSM.md)

File: W6819_Cr2O3_scan_omega_2deg_step_0.002deg0_2.xy
18.36690 178.0
18.37490 197.0
18.38290 178.0
18.39090 208.0
18.39890 206.0
18.40690 237.0
18.41490 200.0
18.42290 228.0
18.43090 224.0
18.43890 219.0
18.44690 217.0
18.45490 222.0
18.46290 245.0
18.47090 217.0
18.47890 221.0
18.48690 224.0
18.49490 219.0
18.50290 223.0
18.51090 235.0
18.51890 234.0
18.52690 215.0
18.53490 224.0
18.54290 235.0
18.55090 229.0
18.55890 244.0
18.56690 241.0
18.57490 236.0
18.58290 221.0
18.59090 230.0
18.59890 266.0
18.60690 241.0
18.61490 258.0
18.62290 262.0
18.63090 263.0
18.63890 237.0
18.64690 248.0
18.65490 278.0
18.66290 277.0
18.67090 291.0
18.67890 269.0
18.68690 284.0
18.69490 289.0
18.70290 298.0
18.71090 303.0
18.71890 306.0
18.72690 327.0
18.73490 303.0
18.74290 314.0
18.75090 290.0
18.75890 316.0
18.76690 353.0
18.77490 330.0
18.78290 346.0
18.79090 345.0
18.79890 351.0
18.80690 408.0
18.81490 402.0
18.82290 403.0
18.83090 391.0
18.83890 412.0
18.84690 406.0
18.85490 416.0
18.86290 472.0
18.87090 452.0
18.87890 435.0
18.88690 447.0
18.89490 487.0
18.90290 440.0
18.91090 440.0
18.91890 481.0
18.92690 507.0
18.93490 529.0
18.94290 535.0
18.95090 582.0
18.95890 601.0
18.96690 603.0
18.97490 583.0
18.98290 634.0
18.99090 671.0
18.99890 627.0
19.00690 659.0
19.01490 665.0
19.02290 681.0
19.03090 783.0
19.03890 707.0
19.04690 708.0
19.05490 808.0
19.06290 862.0
19.07090 831.0
19.07890 837.0
19.08690 835.0
19.09490 880.0
19.10290 888.0
19.11090 938.0
19.11890 914.0
19.12690 964.0
19.13490 1086.0
19.14290 1076.0
19.15090 1129.0
19.15890 1097.0
19.16690 1218.0
19.17490 1191.0
19.18290 1279.0
19.19090 1285.0
19.19890 1340.0
19.20690 1410.0
19.21490 1414.0
19.22290 1527.0
19.23090 1541.0
19.23890 1555.0
19.24690 1704.0
19.25490 1731.0
19.26290 1634.0
19.27090 1684.0
19.27890 1831.0
19.28690 1786.0
19.29490 1761.0
19.30290 1858.0
19.31090 1822.0
19.31890 1903.0
19.32690 1928.0
19.33490 1894.0
19.34290 1894.0
19.35090 1926.0
19.35890 1884.0
19.36690 1842.0
19.37490 1849.0
19.38290 1953.0
19.39090 1795.0
19.39890 1967.0
19.40690 1826.0
19.41490 1805.0
19.42290 1869.0
19.43090 1839.0
19.43890 1749.0
19.44690 1770.0
19.45490 1786.0
19.46290 1743.0
19.47090 1656.0
19.47890 1664.0
19.48690 1582.0
19.49490 1601.0
19.50290 1581.0
19.51090 1514.0
19.51890 1446.0
19.52690 1420.0
19.53490 1437.0
19.54290 1351.0
19.55090 1285.0
19.55890 1250.0
19.56690 1191.0
19.57490 1189.0
19.58290 1144.0
19.59090 1124.0
19.59890 1082.0
19.60690 1057.0
19.61490 997.0
19.62290 1079.0
19.63090 1026.0
19.63890 970.0
19.64690 947.0
19.65490 903.0
19.66290 895.0
19.67090 824.0
19.67890 875.0
19.68690 825.0
19.69490 736.0
19.70290 739.0
19.71090 764.0
19.71890 754.0
19.72690 743.0
19.73490 750.0
19.74290 733.0
19.75090 763.0
19.75890 866.0
19.76690 880.0
19.77490 913.0
19.78290 856.0
19.79090 782.0
19.79890 671.0
19.80690 671.0
19.81490 606.0
19.82290 615.0
19.83090 624.0
19.83890 573.0
19.84690 588.0
19.85490 571.0
19.86290 553.0
19.87090 523.0
19.87890 502.0
19.88690 510.0
19.89490 518.0
19.90290 507.0
19.91090 477.0
19.91890 504.0
19.92690 476.0
19.93490 443.0
19.94290 448.0
19.95090 444.0
19.95890 408.0
19.96690 389.0
19.97490 382.0
19.98290 384.0
19.99090 364.0
19.99890 316.0
20.00690 346.0
20.01490 319.0
20.02290 285.0
20.03090 316.0
20.03890 312.0
20.04690 300.0
20.05490 282.0
20.06290 270.0
20.07090 257.0
20.07890 261.0
20.08690 282.0
20.09490 262.0
20.10290 273.0
20.11090 265.0
20.11890 240.0
20.12690 251.0
20.13490 228.0
20.14290 253.0
20.15090 209.0
20.15890 263.0
20.16690 244.0
20.17490 217.0
20.18290 220.0
20.19090 234.0
20.19890 231.0
20.20690 226.0
20.21490 216.0
20.22290 211.0
20.23090 223.0
20.23890 239.0
20.24690 178.0
20.25490 236.0
20.26290 229.0
20.27090 229.0
20.27890 212.0
20.28690 202.0
20.29490 197.0
20.30290 189.0
20.31090 214.0
20.31890 219.0
20.32690 179.0
20.33490 170.0
20.34290 194.0
20.35090 170.0