Folder: DataAnalysis/data/W6907m/XRD_2ThetaOmega

Note: data/W6907m/XRD_2ThetaOmega/W6907m_peaks.TXT
No.	Label	Pos. [°2Th.]	FWHM Left [°2Th.]	Area [cts*°2Th.]	Backgr.[cts]	d-spacing [Å]	Height [cts]	Shape Left	Status	Integral Breadth [°2Th.]	FWHM Right [°2Th.]	Shape Right	Obs. Lorentz B [°2Th.]	Obs. Gauss B [°2Th.]	Instr. Lorentz B [°2Th.]	Instr. Gauss B [°2Th.]	Crystallite Size [Å]	Micro Strain [%]	Crystallite Size only [Å]	Micro Strain only [%]
1	Cr2O3 3 0 0	64,9514(5)	0,364(2)	712,33	239,02	1,43460	1687(7)	0,26(1)	Included	0,422350	 	 	0,122443	0,339366	0,077457	0,065620	2325,877000	0,228261	288,986000	0,248213
2	Al2O3 3 0 0	68,16205(1)	0,05960(4)	24567,89	268,82	1,37464	320074(189)	0,5382(9)	Included	0,076757	 	 	0,044307	0,045192	0,078470	0,066478	-3119,531000	-0,031443	33697,990000	0,002040

Note: README.md
# Methods
## RSM analysis

Check out [doc](documentation/RSM.md)

File: scan_2th-om_m_Cr2O3_55-75deg_PIXscan_4min_C8.xy
55.0019 150.0
55.0708 167.0
55.1397 160.0
55.2087 158.0
55.2776 150.0
55.3465 148.0
55.4155 126.0
55.4844 108.0
55.5533 140.0
55.6223 175.0
55.6912 139.0
55.7601 143.0
55.8291 153.0
55.898 150.0
55.9669 164.0
56.0359 140.0
56.1048 142.0
56.1737 129.0
56.2427 144.0
56.3116 143.0
56.3805 142.0
56.4495 143.0
56.5184 140.0
56.5873 170.0
56.6563 158.0
56.7252 160.0
56.7941 158.0
56.8631 162.0
56.932 155.0
57.0009 164.0
57.0699 140.0
57.1388 155.0
57.2077 162.0
57.2767 134.0
57.3456 150.0
57.4146 131.0
57.4835 147.0
57.5524 157.0
57.6214 137.0
57.6903 139.0
57.7592 140.0
57.8282 151.0
57.8971 161.0
57.966 147.0
58.035 138.0
58.1039 158.0
58.1728 183.0
58.2418 161.0
58.3107 136.0
58.3796 172.0
58.4486 162.0
58.5175 156.0
58.5864 146.0
58.6554 133.0
58.7243 143.0
58.7932 156.0
58.8622 158.0
58.9311 137.0
59 136.0
59.069 135.0
59.1379 158.0
59.2068 170.0
59.2758 139.0
59.3447 153.0
59.4136 145.0
59.4826 155.0
59.5515 144.0
59.6204 142.0
59.6894 166.0
59.7583 131.0
59.8272 175.0
59.8962 162.0
59.9651 147.0
60.034 170.0
60.103 124.0
60.1719 163.0
60.2408 157.0
60.3098 178.0
60.3787 149.0
60.4476 155.0
60.5166 161.0
60.5855 178.0
60.6544 164.0
60.7234 180.0
60.7923 551.0
60.8613 1051.0
60.9302 496.0
60.9991 216.0
61.0681 209.0
61.137 181.0
61.2059 187.0
61.2749 164.0
61.3438 147.0
61.4127 164.0
61.4817 161.0
61.5506 154.0
61.6195 153.0
61.6885 157.0
61.7574 165.0
61.8263 164.0
61.8953 165.0
61.9642 143.0
62.0331 152.0
62.1021 168.0
62.171 154.0
62.2399 170.0
62.3089 173.0
62.3778 165.0
62.4467 179.0
62.5157 151.0
62.5846 171.0
62.6535 176.0
62.7225 157.0
62.7914 187.0
62.8603 160.0
62.9293 187.0
62.9982 182.0
63.0671 165.0
63.1361 196.0
63.205 189.0
63.2739 174.0
63.3429 174.0
63.4118 185.0
63.4807 187.0
63.5497 150.0
63.6186 168.0
63.6875 181.0
63.7565 174.0
63.8254 181.0
63.8943 203.0
63.9633 209.0
64.0322 197.0
64.1011 184.0
64.1701 228.0
64.239 220.0
64.3079 219.0
64.3769 246.0
64.4458 305.0
64.5148 411.0
64.5837 455.0
64.6526 545.0
64.7216 848.0
64.7905 1293.0
64.8594 1793.0
64.9284 2314.0
64.9973 2520.0
65.0662 2264.0
65.1352 1869.0
65.2041 1476.0
65.273 1008.0
65.342 710.0
65.4109 481.0
65.4798 402.0
65.5488 337.0
65.6177 294.0
65.6866 298.0
65.7556 277.0
65.8245 286.0
65.8934 273.0
65.9624 282.0
66.0313 273.0
66.1002 270.0
66.1692 235.0
66.2381 280.0
66.307 272.0
66.376 326.0
66.4449 350.0
66.5138 327.0
66.5828 333.0
66.6517 410.0
66.7206 400.0
66.7896 360.0
66.8585 400.0
66.9274 399.0
66.9964 429.0
67.0653 481.0
67.1342 531.0
67.2032 513.0
67.2721 537.0
67.341 579.0
67.41 642.0
67.4789 721.0
67.5478 785.0
67.6168 975.0
67.6857 1173.0
67.7546 1823.0
67.8236 3027.0
67.8925 3006.0
67.9615 3728.0
68.0304 7367.0
68.0993 33766.0
68.1683 297604.0
68.2372 25351.0
68.3061 37024.0
68.3751 121867.0
68.444 9617.0
68.5129 3960.0
68.5819 2532.0
68.6508 1784.0
68.7197 1385.0
68.7887 1184.0
68.8576 864.0
68.9265 812.0
68.9955 650.0
69.0644 706.0
69.1333 597.0
69.2023 532.0
69.2712 470.0
69.3401 390.0
69.4091 387.0
69.478 344.0
69.5469 338.0
69.6159 315.0
69.6848 314.0
69.7537 306.0
69.8227 296.0
69.8916 226.0
69.9605 266.0
70.0295 203.0
70.0984 215.0
70.1673 239.0
70.2363 206.0
70.3052 207.0
70.3741 179.0
70.4431 190.0
70.512 187.0
70.5809 223.0
70.6499 188.0
70.7188 183.0
70.7877 189.0
70.8567 197.0
70.9256 214.0
70.9945 192.0
71.0635 194.0
71.1324 183.0
71.2013 169.0
71.2703 175.0
71.3392 165.0
71.4082 190.0
71.4771 181.0
71.546 189.0
71.615 188.0
71.6839 172.0
71.7528 167.0
71.8218 159.0
71.8907 175.0
71.9596 189.0
72.0286 167.0
72.0975 171.0
72.1664 199.0
72.2354 214.0
72.3043 166.0
72.3732 160.0
72.4422 171.0
72.5111 167.0
72.58 147.0
72.649 158.0
72.7179 178.0
72.7868 154.0
72.8558 170.0
72.9247 174.0
72.9936 171.0
73.0626 162.0
73.1315 187.0
73.2004 169.0
73.2694 176.0
73.3383 171.0
73.4072 161.0
73.4762 161.0
73.5451 145.0
73.614 169.0
73.683 157.0
73.7519 166.0
73.8208 165.0
73.8898 139.0
73.9587 148.0
74.0276 160.0
74.0966 151.0
74.1655 160.0
74.2344 163.0
74.3034 161.0
74.3723 168.0
74.4412 157.0
74.5102 167.0
74.5791 155.0
74.648 154.0
74.717 151.0
74.7859 130.0
74.8548 166.0
74.9238 140.0
74.9927 152.0
74.9976 147.0