Folder: DataAnalysis/data/W6907m/XRD_Omega

Note: data/W6907m/XRD_Omega/W6907m_omega_peaks.TXT
No.	Label	Pos. [記mega]	FWHM Left [記mega]	Area [cts*記mega]	Backgr.[cts]	d-spacing [魔	Height [cts]	Shape Left	Status	Integral Breadth [記mega]	FWHM Right [記mega]	Shape Right	Obs. Lorentz B [記mega]	Obs. Gauss B [記mega]	Instr. Lorentz B [記mega]	Instr. Gauss B [記mega]	Crystallite Size [魔	Micro Strain [%]	Crystallite Size only [魔	Micro Strain only [%]
1	Cr2O3 3 0 0	32,7279(9)	0,841(2)	846,72	80,03	 	867(3)	0,261(6)	Included	0,977118	 	 	0,285891	0,783273	0,074050	0,062732	434,272100	1,160189	99,898970	1,368431

Note: README.md
# Methods
## RSM analysis

Check out [doc](documentation/RSM.md)

File: scan_omega_4deg_step_0.005deg0_C8_2.xy
30.77750 103.0
30.79250 103.0
30.80750 103.0
30.82250 72.0
30.83750 90.0
30.85250 110.0
30.86750 92.0
30.88250 76.0
30.89750 109.0
30.91250 103.0
30.92750 97.0
30.94250 104.0
30.95750 92.0
30.97250 85.0
30.98750 84.0
31.00250 91.0
31.01750 81.0
31.03250 93.0
31.04750 99.0
31.06250 90.0
31.07750 96.0
31.09250 98.0
31.10750 87.0
31.12250 95.0
31.13750 90.0
31.15250 104.0
31.16750 99.0
31.18250 94.0
31.19750 98.0
31.21250 118.0
31.22750 90.0
31.24250 94.0
31.25750 109.0
31.27250 111.0
31.28750 105.0
31.30250 92.0
31.31750 106.0
31.33250 113.0
31.34750 101.0
31.36250 120.0
31.37750 113.0
31.39250 87.0
31.40750 97.0
31.42250 107.0
31.43750 104.0
31.45250 126.0
31.46750 115.0
31.48250 141.0
31.49750 134.0
31.51250 107.0
31.52750 107.0
31.54250 118.0
31.55750 137.0
31.57250 132.0
31.58750 124.0
31.60250 133.0
31.61750 150.0
31.63250 129.0
31.64750 129.0
31.66250 132.0
31.67750 139.0
31.69250 150.0
31.70750 131.0
31.72250 161.0
31.73750 168.0
31.75250 165.0
31.76750 180.0
31.78250 168.0
31.79750 204.0
31.81250 184.0
31.82750 174.0
31.84250 202.0
31.85750 199.0
31.87250 209.0
31.88750 243.0
31.90250 222.0
31.91750 224.0
31.93250 213.0
31.94750 238.0
31.96250 222.0
31.97750 265.0
31.99250 291.0
32.00750 249.0
32.02250 289.0
32.03750 297.0
32.05250 316.0
32.06750 346.0
32.08250 328.0
32.09750 351.0
32.11250 379.0
32.12750 395.0
32.14250 380.0
32.15750 411.0
32.17250 408.0
32.18750 472.0
32.20250 510.0
32.21750 502.0
32.23250 548.0
32.24750 526.0
32.26250 542.0
32.27750 561.0
32.29250 603.0
32.30750 634.0
32.32250 715.0
32.33750 687.0
32.35250 720.0
32.36750 754.0
32.38250 813.0
32.39750 805.0
32.41250 937.0
32.42750 885.0
32.44250 885.0
32.45750 956.0
32.47250 1043.0
32.48750 1020.0
32.50250 1070.0
32.51750 1118.0
32.53250 1214.0
32.54750 1203.0
32.56250 1228.0
32.57750 1234.0
32.59250 1270.0
32.60750 1282.0
32.62250 1295.0
32.63750 1269.0
32.65250 1324.0
32.66750 1375.0
32.68250 1322.0
32.69750 1345.0
32.71250 1297.0
32.72750 1297.0
32.74250 1390.0
32.75750 1352.0
32.77250 1354.0
32.78750 1357.0
32.80250 1449.0
32.81750 1334.0
32.83250 1315.0
32.84750 1318.0
32.86250 1283.0
32.87750 1320.0
32.89250 1332.0
32.90750 1250.0
32.92250 1264.0
32.93750 1202.0
32.95250 1224.0
32.96750 1268.0
32.98250 1163.0
32.99750 1120.0
33.01250 1074.0
33.02750 1057.0
33.04250 1008.0
33.05750 1032.0
33.07250 949.0
33.08750 922.0
33.10250 853.0
33.11750 802.0
33.13250 811.0
33.14750 777.0
33.16250 756.0
33.17750 778.0
33.19250 736.0
33.20750 672.0
33.22250 625.0
33.23750 604.0
33.25250 589.0
33.26750 558.0
33.28250 533.0
33.29750 531.0
33.31250 482.0
33.32750 475.0
33.34250 427.0
33.35750 405.0
33.37250 377.0
33.38750 361.0
33.40250 368.0
33.41750 319.0
33.43250 309.0
33.44750 288.0
33.46250 260.0
33.47750 264.0
33.49250 256.0
33.50750 234.0
33.52250 228.0
33.53750 248.0
33.55250 197.0
33.56750 210.0
33.58250 193.0
33.59750 209.0
33.61250 182.0
33.62750 188.0
33.64250 171.0
33.65750 162.0
33.67250 154.0
33.68750 170.0
33.70250 143.0
33.71750 143.0
33.73250 157.0
33.74750 146.0
33.76250 132.0
33.77750 133.0
33.79250 140.0
33.80750 142.0
33.82250 135.0
33.83750 108.0
33.85250 136.0
33.86750 115.0
33.88250 115.0
33.89750 129.0
33.91250 115.0
33.92750 100.0
33.94250 97.0
33.95750 95.0
33.97250 116.0
33.98750 110.0
34.00250 110.0
34.01750 122.0
34.03250 102.0
34.04750 90.0
34.06250 95.0
34.07750 95.0
34.09250 114.0
34.10750 104.0
34.12250 110.0
34.13750 91.0
34.15250 94.0
34.16750 90.0
34.18250 99.0
34.19750 95.0
34.21250 95.0
34.22750 103.0
34.24250 84.0
34.25750 84.0
34.27250 76.0
34.28750 85.0
34.30250 86.0
34.31750 92.0
34.33250 81.0
34.34750 88.0
34.36250 81.0
34.37750 78.0
34.39250 77.0
34.40750 92.0
34.42250 83.0
34.43750 97.0
34.45250 79.0
34.46750 80.0
34.48250 92.0
34.49750 80.0
34.51250 94.0
34.52750 76.0
34.54250 84.0
34.55750 79.0
34.57250 91.0
34.58750 79.0
34.60250 93.0
34.61750 87.0
34.63250 86.0
34.64750 100.0
34.66250 88.0
34.67750 73.0
34.69250 81.0
34.70750 84.0
34.72250 84.0
34.73750 64.0