Folder: DataAnalysis/data/W6715/XRD_Omega

Note: data/W6715/XRD_Omega/W6715_omega_peaks.TXT
No.	Label	Pos. [記mega]	FWHM Left [記mega]	Area [cts*記mega]	Backgr.[cts]	d-spacing [魔	Height [cts]	Shape Left	Status	Integral Breadth [記mega]	FWHM Right [記mega]	Shape Right	Obs. Lorentz B [記mega]	Obs. Gauss B [記mega]	Instr. Lorentz B [記mega]	Instr. Gauss B [記mega]	Crystallite Size [魔	Micro Strain [%]	Crystallite Size only [魔	Micro Strain only [%]
1	Cr2O3 3 0 0	32,9241(7)	0,78(1)	5150,99	2093,82	 	6180(125)	0,0(1)	Included	0,833471	 	 	0,002039	0,833471	0,074042	0,062725	-1278,314000	1,227235	110,734800	1,227372

Note: README.md
# Methods
## RSM analysis

Check out [doc](documentation/RSM.md)

File: W6715_Cr2O3_scan_omega_2deg_step_0.002deg0_1.xy
31.95590 2132.0
31.96390 2234.0
31.97190 2192.0
31.97990 2249.0
31.98790 2372.0
31.99590 2340.0
32.00390 2333.0
32.01190 2445.0
32.01990 2551.0
32.02790 2612.0
32.03590 2644.0
32.04390 2748.0
32.05190 2808.0
32.05990 2749.0
32.06790 2859.0
32.07590 2967.0
32.08390 2950.0
32.09190 3128.0
32.09990 3147.0
32.10790 3159.0
32.11590 3386.0
32.12390 3246.0
32.13190 3366.0
32.13990 3598.0
32.14790 3547.0
32.15590 3656.0
32.16390 3776.0
32.17190 3829.0
32.17990 3933.0
32.18790 3927.0
32.19590 4051.0
32.20390 4253.0
32.21190 4299.0
32.21990 4269.0
32.22790 4242.0
32.23590 4424.0
32.24390 4568.0
32.25190 4747.0
32.25990 4700.0
32.26790 4908.0
32.27590 4965.0
32.28390 4985.0
32.29190 5084.0
32.29990 5266.0
32.30790 5327.0
32.31590 5455.0
32.32390 5566.0
32.33190 5645.0
32.33990 5733.0
32.34790 5945.0
32.35590 6011.0
32.36390 6094.0
32.37190 6231.0
32.37990 6501.0
32.38790 6696.0
32.39590 6561.0
32.40390 6702.0
32.41190 6835.0
32.41990 6957.0
32.42790 7054.0
32.43590 7151.0
32.44390 7361.0
32.45190 7477.0
32.45990 7467.0
32.46790 7661.0
32.47590 7873.0
32.48390 7937.0
32.49190 8290.0
32.49990 8156.0
32.50790 8374.0
32.51590 8544.0
32.52390 8756.0
32.53190 8713.0
32.53990 8829.0
32.54790 9182.0
32.55590 9241.0
32.56390 9356.0
32.57190 9490.0
32.57990 9559.0
32.58790 9742.0
32.59590 9648.0
32.60390 9971.0
32.61190 9990.0
32.61990 10094.0
32.62790 10374.0
32.63590 10319.0
32.64390 10540.0
32.65190 10722.0
32.65990 10455.0
32.66790 10868.0
32.67590 11059.0
32.68390 11298.0
32.69190 11312.0
32.69990 11213.0
32.70790 11547.0
32.71590 11571.0
32.72390 11820.0
32.73190 11808.0
32.73990 11900.0
32.74790 11961.0
32.75590 12157.0
32.76390 12081.0
32.77190 12210.0
32.77990 12471.0
32.78790 12469.0
32.79590 12187.0
32.80390 12461.0
32.81190 12781.0
32.81990 12509.0
32.82790 12674.0
32.83590 12944.0
32.84390 12683.0
32.85190 13198.0
32.85990 13140.0
32.86790 13086.0
32.87590 13239.0
32.88390 13163.0
32.89190 13334.0
32.89990 13271.0
32.90790 13288.0
32.91590 13268.0
32.92390 13076.0
32.93190 13179.0
32.93990 13343.0
32.94790 13164.0
32.95590 13186.0
32.96390 13387.0
32.97190 13312.0
32.97990 13167.0
32.98790 13343.0
32.99590 13533.0
33.00390 13327.0
33.01190 13238.0
33.01990 13191.0
33.02790 13327.0
33.03590 13269.0
33.04390 13244.0
33.05190 13040.0
33.05990 13241.0
33.06790 12662.0
33.07590 12883.0
33.08390 12581.0
33.09190 12111.0
33.09990 12297.0
33.10790 12127.0
33.11590 11966.0
33.12390 11984.0
33.13190 11911.0
33.13990 11867.0
33.14790 11752.0
33.15590 11612.0
33.16390 11285.0
33.17190 11189.0
33.17990 11233.0
33.18790 10835.0
33.19590 11029.0
33.20390 10702.0
33.21190 10648.0
33.21990 10473.0
33.22790 10084.0
33.23590 10255.0
33.24390 9780.0
33.25190 9981.0
33.25990 9406.0
33.26790 9337.0
33.27590 9121.0
33.28390 9086.0
33.29190 8913.0
33.29990 8489.0
33.30790 8531.0
33.31590 8431.0
33.32390 7939.0
33.33190 7979.0
33.33990 7896.0
33.34790 7686.0
33.35590 7544.0
33.36390 7124.0
33.37190 7193.0
33.37990 7132.0
33.38790 6937.0
33.39590 6736.0
33.40390 6507.0
33.41190 6452.0
33.41990 6239.0
33.42790 6051.0
33.43590 5948.0
33.44390 5770.0
33.45190 5686.0
33.45990 5587.0
33.46790 5404.0
33.47590 5391.0
33.48390 5223.0
33.49190 5125.0
33.49990 4998.0
33.50790 4956.0
33.51590 4706.0
33.52390 4584.0
33.53190 4554.0
33.53990 4463.0
33.54790 4271.0
33.55590 4169.0
33.56390 4076.0
33.57190 4061.0
33.57990 3994.0
33.58790 3846.0
33.59590 3697.0
33.60390 3709.0
33.61190 3492.0
33.61990 3440.0
33.62790 3324.0
33.63590 3361.0
33.64390 3138.0
33.65190 3140.0
33.65990 3151.0
33.66790 2995.0
33.67590 3025.0
33.68390 2979.0
33.69190 2883.0
33.69990 2911.0
33.70790 2706.0
33.71590 2715.0
33.72390 2595.0
33.73190 2567.0
33.73990 2563.0
33.74790 2506.0
33.75590 2379.0
33.76390 2408.0
33.77190 2267.0
33.77990 2205.0
33.78790 2196.0
33.79590 2140.0
33.80390 2037.0
33.81190 2069.0
33.81990 2102.0
33.82790 1923.0
33.83590 2005.0
33.84390 1905.0
33.85190 1893.0
33.85990 1831.0
33.86790 1761.0
33.87590 1824.0
33.88390 1657.0
33.89190 1705.0
33.89990 1728.0
33.90790 1626.0
33.91590 1579.0
33.92390 1530.0
33.93190 1514.0
33.93990 1475.0