Folder: DataAnalysis/data/W6715/XRD_2ThetaOmega

Note: data/W6715/XRD_2ThetaOmega/W6715_peaks.TXT
No.	Label	Pos. [°2Th.]	FWHM Left [°2Th.]	Area [cts*°2Th.]	Backgr.[cts]	d-spacing [Å]	Height [cts]	Shape Left	Status	Integral Breadth [°2Th.]	FWHM Right [°2Th.]	Shape Right	Obs. Lorentz B [°2Th.]	Obs. Gauss B [°2Th.]	Instr. Lorentz B [°2Th.]	Instr. Gauss B [°2Th.]	Crystallite Size [Å]	Micro Strain [%]	Crystallite Size only [Å]	Micro Strain only [%]
1	Cr2O3 3 0 0	64,3372(2)	0,4322(4)	6434,64	478,38	1,44681	10385(21)	0,799(2)	Included	0,619636	 	 	0,509357	0,225803	0,077280	0,065471	241,341300	0,149917	188,975400	0,382804
2	Al2O3 3 0 0	68,134360(7)	0,05838(1)	55705,03	782,51	1,37513	740399(128)	0,5401(3)	Included	0,075237	 	 	0,043570	0,044184	0,078461	0,066470	-3054,046000	-0,032043	33692,480000	0,002041

Note: README.md
# Methods
## RSM analysis

Check out [doc](documentation/RSM.md)

File: phi0scan_2th-om_m_Cr2O3_55-75deg_PIXscan_4min_W6715_1.xy
55.0019 14.0
55.0708 15.0
55.1397 15.0
55.2087 17.0
55.2776 18.0
55.3465 11.0
55.4155 16.0
55.4844 10.0
55.5533 15.0
55.6223 13.0
55.6912 15.0
55.7601 11.0
55.8291 15.0
55.898 13.0
55.9669 10.0
56.0359 14.0
56.1048 16.0
56.1737 13.0
56.2427 13.0
56.3116 14.0
56.3805 9.0
56.4495 16.0
56.5184 17.0
56.5873 10.0
56.6563 19.0
56.7252 20.0
56.7941 12.0
56.8631 16.0
56.932 11.0
57.0009 11.0
57.0699 12.0
57.1388 16.0
57.2077 16.0
57.2767 18.0
57.3456 18.0
57.4146 29.0
57.4835 16.0
57.5524 17.0
57.6214 25.0
57.6903 18.0
57.7592 11.0
57.8282 14.0
57.8971 15.0
57.966 15.0
58.035 5.0
58.1039 8.0
58.1728 13.0
58.2418 11.0
58.3107 13.0
58.3796 9.0
58.4486 13.0
58.5175 9.0
58.5864 14.0
58.6554 11.0
58.7243 12.0
58.7932 6.0
58.8622 11.0
58.9311 10.0
59 6.0
59.069 12.0
59.1379 20.0
59.2068 11.0
59.2758 15.0
59.3447 14.0
59.4136 13.0
59.4826 15.0
59.5515 12.0
59.6204 11.0
59.6894 19.0
59.7583 17.0
59.8272 16.0
59.8962 6.0
59.9651 12.0
60.034 14.0
60.103 20.0
60.1719 8.0
60.2408 20.0
60.3098 21.0
60.3787 21.0
60.4476 20.0
60.5166 20.0
60.5855 16.0
60.6544 31.0
60.7234 132.0
60.7923 673.0
60.8613 218.0
60.9302 62.0
60.9991 31.0
61.0681 27.0
61.137 28.0
61.2059 25.0
61.2749 22.0
61.3438 22.0
61.4127 21.0
61.4817 22.0
61.5506 12.0
61.6195 32.0
61.6885 24.0
61.7574 22.0
61.8263 30.0
61.8953 15.0
61.9642 16.0
62.0331 20.0
62.1021 26.0
62.171 21.0
62.2399 25.0
62.3089 25.0
62.3778 18.0
62.4467 36.0
62.5157 25.0
62.5846 34.0
62.6535 34.0
62.7225 34.0
62.7914 39.0
62.8603 46.0
62.9293 39.0
62.9982 42.0
63.0671 54.0
63.1361 64.0
63.205 58.0
63.2739 75.0
63.3429 70.0
63.4118 82.0
63.4807 99.0
63.5497 113.0
63.6186 157.0
63.6875 164.0
63.7565 241.0
63.8254 286.0
63.8943 425.0
63.9633 549.0
64.0322 710.0
64.1011 980.0
64.1701 1342.0
64.239 1658.0
64.3079 1947.0
64.3769 1941.0
64.4458 1824.0
64.5148 1505.0
64.5837 1167.0
64.6526 840.0
64.7216 613.0
64.7905 386.0
64.8594 318.0
64.9284 283.0
64.9973 219.0
65.0662 187.0
65.1352 150.0
65.2041 120.0
65.273 100.0
65.342 93.0
65.4109 76.0
65.4798 66.0
65.5488 63.0
65.6177 88.0
65.6866 61.0
65.7556 61.0
65.8245 67.0
65.8934 73.0
65.9624 78.0
66.0313 57.0
66.1002 64.0
66.1692 65.0
66.2381 67.0
66.307 56.0
66.376 92.0
66.4449 86.0
66.5138 91.0
66.5828 97.0
66.6517 92.0
66.7206 99.0
66.7896 101.0
66.8585 108.0
66.9274 112.0
66.9964 156.0
67.0653 142.0
67.1342 170.0
67.2032 167.0
67.2721 223.0
67.341 201.0
67.41 228.0
67.4789 330.0
67.5478 371.0
67.6168 460.0
67.6857 670.0
67.7546 1274.0
67.8236 1498.0
67.8925 1517.0
67.9615 2624.0
68.0304 8694.0
68.0993 142776.0
68.1683 20689.0
68.2372 9690.0
68.3061 76127.0
68.3751 7297.0
68.444 2146.0
68.5129 1307.0
68.5819 930.0
68.6508 672.0
68.7197 559.0
68.7887 459.0
68.8576 344.0
68.9265 345.0
68.9955 317.0
69.0644 211.0
69.1333 205.0
69.2023 199.0
69.2712 144.0
69.3401 170.0
69.4091 128.0
69.478 107.0
69.5469 114.0
69.6159 95.0
69.6848 100.0
69.7537 87.0
69.8227 75.0
69.8916 69.0
69.9605 44.0
70.0295 54.0
70.0984 46.0
70.1673 44.0
70.2363 35.0
70.3052 38.0
70.3741 42.0
70.4431 42.0
70.512 39.0
70.5809 31.0
70.6499 36.0
70.7188 34.0
70.7877 38.0
70.8567 23.0
70.9256 32.0
70.9945 22.0
71.0635 21.0
71.1324 24.0
71.2013 22.0
71.2703 21.0
71.3392 25.0
71.4082 12.0
71.4771 29.0
71.546 22.0
71.615 27.0
71.6839 17.0
71.7528 15.0
71.8218 17.0
71.8907 17.0
71.9596 13.0
72.0286 26.0
72.0975 18.0
72.1664 21.0
72.2354 21.0
72.3043 23.0
72.3732 20.0
72.4422 19.0
72.5111 15.0
72.58 16.0
72.649 15.0
72.7179 17.0
72.7868 18.0
72.8558 21.0
72.9247 18.0
72.9936 22.0
73.0626 12.0
73.1315 16.0
73.2004 12.0
73.2694 6.0
73.3383 11.0
73.4072 15.0
73.4762 20.0
73.5451 17.0
73.614 15.0
73.683 21.0
73.7519 18.0
73.8208 20.0
73.8898 11.0
73.9587 16.0
74.0276 13.0
74.0966 18.0
74.1655 21.0
74.2344 12.0
74.3034 18.0
74.3723 11.0
74.4412 8.0
74.5102 12.0
74.5791 11.0
74.648 15.0
74.717 19.0
74.7859 21.0
74.8548 14.0
74.9238 13.0
74.9927 14.0
74.9976 17.0

File: phi90scan_2th-om_m_Cr2O3_55-75deg_PIXscan_4min_W6715_2.xy
55.0019 14.0
55.0708 13.0
55.1397 15.0
55.2087 15.0
55.2776 11.0
55.3465 10.0
55.4155 9.0
55.4844 10.0
55.5533 24.0
55.6223 10.0
55.6912 14.0
55.7601 13.0
55.8291 18.0
55.898 8.0
55.9669 10.0
56.0359 16.0
56.1048 7.0
56.1737 16.0
56.2427 7.0
56.3116 8.0
56.3805 15.0
56.4495 12.0
56.5184 14.0
56.5873 15.0
56.6563 13.0
56.7252 7.0
56.7941 11.0
56.8631 8.0
56.932 8.0
57.0009 13.0
57.0699 14.0
57.1388 12.0
57.2077 16.0
57.2767 14.0
57.3456 17.0
57.4146 25.0
57.4835 22.0
57.5524 30.0
57.6214 26.0
57.6903 19.0
57.7592 17.0
57.8282 13.0
57.8971 16.0
57.966 14.0
58.035 9.0
58.1039 19.0
58.1728 12.0
58.2418 6.0
58.3107 14.0
58.3796 8.0
58.4486 16.0
58.5175 12.0
58.5864 10.0
58.6554 10.0
58.7243 12.0
58.7932 11.0
58.8622 12.0
58.9311 7.0
59 10.0
59.069 18.0
59.1379 10.0
59.2068 20.0
59.2758 15.0
59.3447 5.0
59.4136 12.0
59.4826 16.0
59.5515 14.0
59.6204 11.0
59.6894 7.0
59.7583 12.0
59.8272 19.0
59.8962 13.0
59.9651 7.0
60.034 9.0
60.103 13.0
60.1719 12.0
60.2408 24.0
60.3098 25.0
60.3787 10.0
60.4476 19.0
60.5166 18.0
60.5855 18.0
60.6544 29.0
60.7234 105.0
60.7923 614.0
60.8613 183.0
60.9302 69.0
60.9991 42.0
61.0681 23.0
61.137 27.0
61.2059 20.0
61.2749 20.0
61.3438 24.0
61.4127 21.0
61.4817 21.0
61.5506 18.0
61.6195 20.0
61.6885 22.0
61.7574 18.0
61.8263 20.0
61.8953 25.0
61.9642 30.0
62.0331 23.0
62.1021 38.0
62.171 20.0
62.2399 39.0
62.3089 24.0
62.3778 30.0
62.4467 31.0
62.5157 35.0
62.5846 36.0
62.6535 31.0
62.7225 40.0
62.7914 41.0
62.8603 45.0
62.9293 44.0
62.9982 58.0
63.0671 67.0
63.1361 63.0
63.205 76.0
63.2739 67.0
63.3429 99.0
63.4118 100.0
63.4807 136.0
63.5497 142.0
63.6186 193.0
63.6875 218.0
63.7565 308.0
63.8254 442.0
63.8943 603.0
63.9633 824.0
64.0322 1194.0
64.1011 1727.0
64.1701 2257.0
64.239 3073.0
64.3079 3566.0
64.3769 3530.0
64.4458 3017.0
64.5148 2603.0
64.5837 1929.0
64.6526 1297.0
64.7216 944.0
64.7905 709.0
64.8594 511.0
64.9284 426.0
64.9973 308.0
65.0662 255.0
65.1352 218.0
65.2041 147.0
65.273 174.0
65.342 118.0
65.4109 109.0
65.4798 103.0
65.5488 93.0
65.6177 70.0
65.6866 67.0
65.7556 64.0
65.8245 66.0
65.8934 77.0
65.9624 73.0
66.0313 75.0
66.1002 57.0
66.1692 64.0
66.2381 61.0
66.307 69.0
66.376 87.0
66.4449 68.0
66.5138 82.0
66.5828 82.0
66.6517 91.0
66.7206 74.0
66.7896 109.0
66.8585 107.0
66.9274 136.0
66.9964 141.0
67.0653 142.0
67.1342 160.0
67.2032 185.0
67.2721 170.0
67.341 199.0
67.41 299.0
67.4789 291.0
67.5478 366.0
67.6168 428.0
67.6857 664.0
67.7546 1266.0
67.8236 1453.0
67.8925 1522.0
67.9615 2551.0
68.0304 8565.0
68.0993 141696.0
68.1683 19724.0
68.2372 9774.0
68.3061 75354.0
68.3751 6988.0
68.444 2139.0
68.5129 1265.0
68.5819 851.0
68.6508 681.0
68.7197 581.0
68.7887 444.0
68.8576 393.0
68.9265 327.0
68.9955 288.0
69.0644 268.0
69.1333 190.0
69.2023 191.0
69.2712 180.0
69.3401 152.0
69.4091 150.0
69.478 142.0
69.5469 118.0
69.6159 102.0
69.6848 98.0
69.7537 85.0
69.8227 84.0
69.8916 72.0
69.9605 61.0
70.0295 76.0
70.0984 59.0
70.1673 58.0
70.2363 47.0
70.3052 39.0
70.3741 44.0
70.4431 37.0
70.512 42.0
70.5809 31.0
70.6499 30.0
70.7188 30.0
70.7877 38.0
70.8567 24.0
70.9256 35.0
70.9945 27.0
71.0635 38.0
71.1324 23.0
71.2013 31.0
71.2703 18.0
71.3392 30.0
71.4082 23.0
71.4771 25.0
71.546 18.0
71.615 24.0
71.6839 28.0
71.7528 15.0
71.8218 15.0
71.8907 21.0
71.9596 21.0
72.0286 15.0
72.0975 11.0
72.1664 20.0
72.2354 19.0
72.3043 21.0
72.3732 16.0
72.4422 25.0
72.5111 16.0
72.58 17.0
72.649 19.0
72.7179 22.0
72.7868 19.0
72.8558 13.0
72.9247 12.0
72.9936 21.0
73.0626 14.0
73.1315 17.0
73.2004 21.0
73.2694 8.0
73.3383 10.0
73.4072 17.0
73.4762 13.0
73.5451 23.0
73.614 11.0
73.683 6.0
73.7519 12.0
73.8208 9.0
73.8898 18.0
73.9587 18.0
74.0276 15.0
74.0966 20.0
74.1655 19.0
74.2344 10.0
74.3034 13.0
74.3723 13.0
74.4412 6.0
74.5102 15.0
74.5791 9.0
74.648 11.0
74.717 10.0
74.7859 10.0
74.8548 16.0
74.9238 12.0
74.9927 16.0
74.9976 18.0

File: phi180scan_2th-om_m_Cr2O3_55-75deg_PIXscan_4min_W6715_3.xy
55.0019 14.0
55.0708 15.0
55.1397 7.0
55.2087 15.0
55.2776 12.0
55.3465 12.0
55.4155 13.0
55.4844 11.0
55.5533 20.0
55.6223 14.0
55.6912 10.0
55.7601 19.0
55.8291 9.0
55.898 20.0
55.9669 8.0
56.0359 12.0
56.1048 10.0
56.1737 14.0
56.2427 18.0
56.3116 14.0
56.3805 6.0
56.4495 16.0
56.5184 10.0
56.5873 10.0
56.6563 11.0
56.7252 17.0
56.7941 15.0
56.8631 14.0
56.932 14.0
57.0009 14.0
57.0699 14.0
57.1388 17.0
57.2077 11.0
57.2767 9.0
57.3456 23.0
57.4146 18.0
57.4835 15.0
57.5524 19.0
57.6214 18.0
57.6903 25.0
57.7592 22.0
57.8282 15.0
57.8971 10.0
57.966 13.0
58.035 16.0
58.1039 8.0
58.1728 7.0
58.2418 21.0
58.3107 10.0
58.3796 13.0
58.4486 22.0
58.5175 13.0
58.5864 18.0
58.6554 13.0
58.7243 8.0
58.7932 13.0
58.8622 19.0
58.9311 15.0
59 10.0
59.069 17.0
59.1379 14.0
59.2068 11.0
59.2758 15.0
59.3447 14.0
59.4136 18.0
59.4826 16.0
59.5515 15.0
59.6204 13.0
59.6894 16.0
59.7583 18.0
59.8272 22.0
59.8962 16.0
59.9651 13.0
60.034 12.0
60.103 16.0
60.1719 15.0
60.2408 21.0
60.3098 25.0
60.3787 19.0
60.4476 18.0
60.5166 23.0
60.5855 32.0
60.6544 28.0
60.7234 89.0
60.7923 690.0
60.8613 207.0
60.9302 84.0
60.9991 42.0
61.0681 24.0
61.137 28.0
61.2059 27.0
61.2749 20.0
61.3438 21.0
61.4127 18.0
61.4817 22.0
61.5506 19.0
61.6195 20.0
61.6885 17.0
61.7574 30.0
61.8263 26.0
61.8953 15.0
61.9642 18.0
62.0331 19.0
62.1021 30.0
62.171 24.0
62.2399 30.0
62.3089 15.0
62.3778 15.0
62.4467 33.0
62.5157 31.0
62.5846 30.0
62.6535 29.0
62.7225 41.0
62.7914 43.0
62.8603 36.0
62.9293 51.0
62.9982 41.0
63.0671 52.0
63.1361 44.0
63.205 51.0
63.2739 70.0
63.3429 84.0
63.4118 108.0
63.4807 93.0
63.5497 106.0
63.6186 139.0
63.6875 184.0
63.7565 223.0
63.8254 289.0
63.8943 377.0
63.9633 478.0
64.0322 655.0
64.1011 818.0
64.1701 1191.0
64.239 1500.0
64.3079 1681.0
64.3769 1649.0
64.4458 1521.0
64.5148 1298.0
64.5837 1036.0
64.6526 672.0
64.7216 523.0
64.7905 416.0
64.8594 314.0
64.9284 258.0
64.9973 188.0
65.0662 149.0
65.1352 147.0
65.2041 118.0
65.273 111.0
65.342 71.0
65.4109 82.0
65.4798 79.0
65.5488 76.0
65.6177 71.0
65.6866 69.0
65.7556 76.0
65.8245 54.0
65.8934 74.0
65.9624 63.0
66.0313 65.0
66.1002 67.0
66.1692 72.0
66.2381 90.0
66.307 92.0
66.376 74.0
66.4449 77.0
66.5138 110.0
66.5828 84.0
66.6517 110.0
66.7206 120.0
66.7896 117.0
66.8585 130.0
66.9274 126.0
66.9964 139.0
67.0653 155.0
67.1342 158.0
67.2032 173.0
67.2721 172.0
67.341 182.0
67.41 272.0
67.4789 304.0
67.5478 354.0
67.6168 425.0
67.6857 645.0
67.7546 1268.0
67.8236 1510.0
67.8925 1463.0
67.9615 2451.0
68.0304 7622.0
68.0993 133052.0
68.1683 27104.0
68.2372 8917.0
68.3061 79568.0
68.3751 9080.0
68.444 2368.0
68.5129 1366.0
68.5819 914.0
68.6508 724.0
68.7197 571.0
68.7887 456.0
68.8576 394.0
68.9265 345.0
68.9955 318.0
69.0644 200.0
69.1333 220.0
69.2023 209.0
69.2712 174.0
69.3401 156.0
69.4091 152.0
69.478 129.0
69.5469 121.0
69.6159 107.0
69.6848 89.0
69.7537 87.0
69.8227 92.0
69.8916 60.0
69.9605 73.0
70.0295 62.0
70.0984 60.0
70.1673 56.0
70.2363 50.0
70.3052 42.0
70.3741 46.0
70.4431 35.0
70.512 36.0
70.5809 25.0
70.6499 33.0
70.7188 25.0
70.7877 31.0
70.8567 31.0
70.9256 38.0
70.9945 24.0
71.0635 19.0
71.1324 27.0
71.2013 30.0
71.2703 20.0
71.3392 29.0
71.4082 21.0
71.4771 22.0
71.546 25.0
71.615 21.0
71.6839 24.0
71.7528 27.0
71.8218 17.0
71.8907 24.0
71.9596 29.0
72.0286 22.0
72.0975 20.0
72.1664 23.0
72.2354 15.0
72.3043 15.0
72.3732 14.0
72.4422 23.0
72.5111 20.0
72.58 21.0
72.649 23.0
72.7179 20.0
72.7868 10.0
72.8558 15.0
72.9247 19.0
72.9936 19.0
73.0626 21.0
73.1315 15.0
73.2004 16.0
73.2694 10.0
73.3383 11.0
73.4072 18.0
73.4762 19.0
73.5451 23.0
73.614 6.0
73.683 19.0
73.7519 12.0
73.8208 14.0
73.8898 23.0
73.9587 9.0
74.0276 17.0
74.0966 18.0
74.1655 15.0
74.2344 18.0
74.3034 21.0
74.3723 10.0
74.4412 14.0
74.5102 15.0
74.5791 16.0
74.648 25.0
74.717 9.0
74.7859 15.0
74.8548 13.0
74.9238 16.0
74.9927 16.0
74.9976 14.0

File: phi270scan_2th-om_m_Cr2O3_55-75deg_PIXscan_4min_W6715_4.xy
55.0019 15.0
55.0708 16.0
55.1397 7.0
55.2087 12.0
55.2776 11.0
55.3465 6.0
55.4155 17.0
55.4844 5.0
55.5533 9.0
55.6223 12.0
55.6912 21.0
55.7601 14.0
55.8291 15.0
55.898 9.0
55.9669 8.0
56.0359 10.0
56.1048 14.0
56.1737 14.0
56.2427 15.0
56.3116 11.0
56.3805 14.0
56.4495 11.0
56.5184 11.0
56.5873 10.0
56.6563 9.0
56.7252 13.0
56.7941 11.0
56.8631 13.0
56.932 13.0
57.0009 12.0
57.0699 11.0
57.1388 16.0
57.2077 14.0
57.2767 24.0
57.3456 20.0
57.4146 30.0
57.4835 31.0
57.5524 33.0
57.6214 25.0
57.6903 33.0
57.7592 12.0
57.8282 18.0
57.8971 14.0
57.966 14.0
58.035 16.0
58.1039 16.0
58.1728 16.0
58.2418 13.0
58.3107 17.0
58.3796 13.0
58.4486 14.0
58.5175 13.0
58.5864 10.0
58.6554 11.0
58.7243 13.0
58.7932 14.0
58.8622 15.0
58.9311 10.0
59 9.0
59.069 11.0
59.1379 10.0
59.2068 15.0
59.2758 13.0
59.3447 11.0
59.4136 7.0
59.4826 17.0
59.5515 14.0
59.6204 17.0
59.6894 10.0
59.7583 7.0
59.8272 11.0
59.8962 13.0
59.9651 16.0
60.034 10.0
60.103 18.0
60.1719 18.0
60.2408 23.0
60.3098 20.0
60.3787 21.0
60.4476 19.0
60.5166 26.0
60.5855 17.0
60.6544 28.0
60.7234 100.0
60.7923 673.0
60.8613 227.0
60.9302 60.0
60.9991 27.0
61.0681 31.0
61.137 23.0
61.2059 25.0
61.2749 27.0
61.3438 25.0
61.4127 32.0
61.4817 17.0
61.5506 19.0
61.6195 20.0
61.6885 15.0
61.7574 25.0
61.8263 24.0
61.8953 31.0
61.9642 26.0
62.0331 22.0
62.1021 29.0
62.171 24.0
62.2399 24.0
62.3089 18.0
62.3778 32.0
62.4467 40.0
62.5157 37.0
62.5846 41.0
62.6535 32.0
62.7225 47.0
62.7914 56.0
62.8603 52.0
62.9293 56.0
62.9982 50.0
63.0671 59.0
63.1361 62.0
63.205 72.0
63.2739 93.0
63.3429 101.0
63.4118 126.0
63.4807 132.0
63.5497 169.0
63.6186 209.0
63.6875 276.0
63.7565 379.0
63.8254 457.0
63.8943 613.0
63.9633 858.0
64.0322 1289.0
64.1011 1729.0
64.1701 2352.0
64.239 3210.0
64.3079 3723.0
64.3769 3748.0
64.4458 3218.0
64.5148 2688.0
64.5837 2102.0
64.6526 1436.0
64.7216 1014.0
64.7905 791.0
64.8594 576.0
64.9284 436.0
64.9973 370.0
65.0662 288.0
65.1352 233.0
65.2041 168.0
65.273 139.0
65.342 128.0
65.4109 98.0
65.4798 102.0
65.5488 80.0
65.6177 91.0
65.6866 84.0
65.7556 66.0
65.8245 64.0
65.8934 69.0
65.9624 75.0
66.0313 60.0
66.1002 77.0
66.1692 72.0
66.2381 76.0
66.307 63.0
66.376 91.0
66.4449 105.0
66.5138 91.0
66.5828 87.0
66.6517 97.0
66.7206 133.0
66.7896 106.0
66.8585 119.0
66.9274 121.0
66.9964 157.0
67.0653 148.0
67.1342 155.0
67.2032 184.0
67.2721 183.0
67.341 211.0
67.41 279.0
67.4789 320.0
67.5478 376.0
67.6168 476.0
67.6857 661.0
67.7546 1245.0
67.8236 1494.0
67.8925 1476.0
67.9615 2580.0
68.0304 7722.0
68.0993 134392.0
68.1683 25305.0
68.2372 9155.0
68.3061 76626.0
68.3751 8430.0
68.444 2273.0
68.5129 1340.0
68.5819 852.0
68.6508 701.0
68.7197 558.0
68.7887 438.0
68.8576 348.0
68.9265 346.0
68.9955 297.0
69.0644 268.0
69.1333 205.0
69.2023 173.0
69.2712 172.0
69.3401 159.0
69.4091 134.0
69.478 109.0
69.5469 81.0
69.6159 99.0
69.6848 79.0
69.7537 78.0
69.8227 72.0
69.8916 49.0
69.9605 63.0
70.0295 56.0
70.0984 39.0
70.1673 49.0
70.2363 47.0
70.3052 46.0
70.3741 39.0
70.4431 38.0
70.512 30.0
70.5809 34.0
70.6499 36.0
70.7188 35.0
70.7877 32.0
70.8567 29.0
70.9256 32.0
70.9945 40.0
71.0635 28.0
71.1324 26.0
71.2013 28.0
71.2703 23.0
71.3392 22.0
71.4082 20.0
71.4771 19.0
71.546 24.0
71.615 32.0
71.6839 16.0
71.7528 13.0
71.8218 15.0
71.8907 13.0
71.9596 22.0
72.0286 20.0
72.0975 23.0
72.1664 26.0
72.2354 26.0
72.3043 27.0
72.3732 24.0
72.4422 14.0
72.5111 22.0
72.58 11.0
72.649 9.0
72.7179 15.0
72.7868 21.0
72.8558 15.0
72.9247 18.0
72.9936 15.0
73.0626 15.0
73.1315 19.0
73.2004 24.0
73.2694 12.0
73.3383 11.0
73.4072 16.0
73.4762 12.0
73.5451 9.0
73.614 21.0
73.683 9.0
73.7519 12.0
73.8208 19.0
73.8898 18.0
73.9587 13.0
74.0276 16.0
74.0966 4.0
74.1655 9.0
74.2344 12.0
74.3034 19.0
74.3723 16.0
74.4412 14.0
74.5102 14.0
74.5791 11.0
74.648 9.0
74.717 12.0
74.7859 20.0
74.8548 17.0
74.9238 7.0
74.9927 18.0
74.9976 14.0

File: W6715_absolute_2th-om_58-72deg-20min_1.xy
58.0028 280.0
58.0496 236.0
58.0964 240.0
58.1432 248.0
58.1899 258.0
58.2367 276.0
58.2835 242.0
58.3303 260.0
58.377 276.0
58.4238 247.0
58.4706 230.0
58.5174 258.0
58.5642 256.0
58.6109 244.0
58.6577 275.0
58.7045 222.0
58.7513 261.0
58.798 247.0
58.8448 244.0
58.8916 228.0
58.9384 291.0
58.9851 239.0
59.0319 260.0
59.0787 270.0
59.1255 259.0
59.1722 223.0
59.219 263.0
59.2658 231.0
59.3126 236.0
59.3594 272.0
59.4061 259.0
59.4529 216.0
59.4997 242.0
59.5465 279.0
59.5932 241.0
59.64 268.0
59.6868 271.0
59.7336 274.0
59.7803 258.0
59.8271 256.0
59.8739 261.0
59.9207 242.0
59.9674 256.0
60.0142 230.0
60.061 265.0
60.1078 265.0
60.1546 288.0
60.2013 250.0
60.2481 303.0
60.2949 281.0
60.3417 297.0
60.3884 291.0
60.4352 294.0
60.482 302.0
60.5288 290.0
60.5755 284.0
60.6223 312.0
60.6691 318.0
60.7159 453.0
60.7627 997.0
60.8094 2371.0
60.8562 1564.0
60.903 1065.0
60.9498 588.0
60.9965 401.0
61.0433 378.0
61.0901 369.0
61.1369 409.0
61.1836 362.0
61.2304 403.0
61.2772 414.0
61.324 395.0
61.3707 419.0
61.4175 378.0
61.4643 385.0
61.5111 346.0
61.5579 352.0
61.6046 317.0
61.6514 322.0
61.6982 333.0
61.745 361.0
61.7917 344.0
61.8385 369.0
61.8853 354.0
61.9321 312.0
61.9788 355.0
62.0256 316.0
62.0724 340.0
62.1192 315.0
62.166 323.0
62.2127 374.0
62.2595 373.0
62.3063 357.0
62.3531 354.0
62.3998 356.0
62.4466 358.0
62.4934 359.0
62.5402 362.0
62.5869 383.0
62.6337 362.0
62.6805 383.0
62.7273 394.0
62.774 378.0
62.8208 384.0
62.8676 392.0
62.9144 410.0
62.9612 428.0
63.0079 437.0
63.0547 416.0
63.1015 473.0
63.1483 511.0
63.195 437.0
63.2418 522.0
63.2886 549.0
63.3354 601.0
63.3821 605.0
63.4289 673.0
63.4757 734.0
63.5225 806.0
63.5693 858.0
63.616 922.0
63.6628 1038.0
63.7096 1220.0
63.7564 1410.0
63.8031 1676.0
63.8499 2051.0
63.8967 2515.0
63.9435 2961.0
63.9902 3682.0
64.037 4613.0
64.0838 5762.0
64.1306 7180.0
64.1773 8920.0
64.2241 10618.0
64.2709 12579.0
64.3177 14285.0
64.3645 15167.0
64.4112 14399.0
64.458 13334.0
64.5048 11996.0
64.5516 10798.0
64.5983 9030.0
64.6451 7019.0
64.6919 5766.0
64.7387 4640.0
64.7854 3869.0
64.8322 3500.0
64.879 3978.0
64.9258 5983.0
64.9725 4312.0
65.0193 2410.0
65.0661 1791.0
65.1129 1482.0
65.1597 1294.0
65.2064 1071.0
65.2532 1037.0
65.3 973.0
65.3468 882.0
65.3935 885.0
65.4403 1176.0
65.4871 1403.0
65.5339 991.0
65.5806 810.0
65.6274 660.0
65.6742 642.0
65.721 632.0
65.7678 632.0
65.8145 589.0
65.8613 568.0
65.9081 581.0
65.9549 592.0
66.0016 558.0
66.0484 625.0
66.0952 619.0
66.142 604.0
66.1887 612.0
66.2355 574.0
66.2823 606.0
66.3291 576.0
66.3758 690.0
66.4226 594.0
66.4694 694.0
66.5162 661.0
66.563 690.0
66.6097 691.0
66.6565 758.0
66.7033 748.0
66.7501 768.0
66.7968 786.0
66.8436 844.0
66.8904 844.0
66.9372 909.0
66.9839 849.0
67.0307 988.0
67.0775 1047.0
67.1243 1027.0
67.1711 1039.0
67.2178 1153.0
67.2646 1117.0
67.3114 1224.0
67.3582 1320.0
67.4049 1414.0
67.4517 1573.0
67.4985 1701.0
67.5453 1866.0
67.592 2064.0
67.6388 2339.0
67.6856 2832.0
67.7324 4015.0
67.7791 6017.0
67.8259 6994.0
67.8727 6830.0
67.9195 7443.0
67.9663 10161.0
68.013 18396.0
68.0598 48651.0
68.1066 437018.0
68.1534 553009.0
68.2001 73147.0
68.2469 39874.0
68.2937 179198.0
68.3405 317723.0
68.3872 52938.0
68.434 16521.0
68.4808 9632.0
68.5276 6871.0
68.5743 5289.0
68.6211 4362.0
68.6679 3584.0
68.7147 3257.0
68.7615 2814.0
68.8082 2571.0
68.855 2375.0
68.9018 2070.0
68.9486 2032.0
68.9953 1987.0
69.0421 1773.0
69.0889 1743.0
69.1357 1620.0
69.1824 1593.0
69.2292 1483.0
69.276 1303.0
69.3228 1291.0
69.3696 1252.0
69.4163 1206.0
69.4631 1067.0
69.5099 1153.0
69.5567 1061.0
69.6034 1008.0
69.6502 960.0
69.697 1008.0
69.7438 899.0
69.7905 880.0
69.8373 850.0
69.8841 745.0
69.9309 716.0
69.9776 737.0
70.0244 747.0
70.0712 662.0
70.118 677.0
70.1648 618.0
70.2115 572.0
70.2583 589.0
70.3051 524.0
70.3519 565.0
70.3986 543.0
70.4454 530.0
70.4922 517.0
70.539 490.0
70.5857 466.0
70.6325 465.0
70.6793 444.0
70.7261 439.0
70.7729 482.0
70.8196 407.0
70.8664 463.0
70.9132 400.0
70.96 402.0
71.0067 412.0
71.0535 419.0
71.1003 412.0
71.1471 370.0
71.1938 386.0
71.2406 334.0
71.2874 371.0
71.3342 415.0
71.3809 367.0
71.4277 366.0
71.4745 380.0
71.5213 367.0
71.5681 366.0
71.6148 351.0
71.6616 371.0
71.7084 372.0
71.7552 372.0
71.8019 339.0
71.8487 336.0
71.8955 350.0
71.9423 343.0
71.989 378.0
71.9989 318.0