Folder: DataAnalysis/data/W6715/XRD_Phi

Note: README.md
# Methods
## RSM analysis

Check out [doc](documentation/RSM.md)

File: W6715_Al2O3_phi_360deg_25min_3mm_active.xy
-127.665 60.000
-126.465 52.000
-125.265 49.000
-124.065 51.000
-122.865 58.000
-121.665 56.000
-120.465 67.000
-119.265 53.000
-118.065 50.000
-116.865 50.000
-115.665 66.000
-114.465 57.000
-113.265 58.000
-112.065 40.000
-110.865 49.000
-109.665 51.000
-108.465 49.000
-107.265 47.000
-106.065 46.000
-104.865 49.000
-103.665 58.000
-102.465 49.000
-101.265 47.000
-100.065 53.000
-98.86500 49.000
-97.66500 48.000
-96.46500 54.000
-95.26500 45.000
-94.06500 43.000
-92.86500 39.000
-91.66500 55.000
-90.46500 44.000
-89.26500 61.000
-88.06500 61.000
-86.86500 55.000
-85.66500 65.000
-84.46500 67.000
-83.26500 48.000
-82.06500 57.000
-80.86500 71.000
-79.66500 46.000
-78.46500 54.000
-77.26500 66.000
-76.06500 55.000
-74.86500 69.000
-73.66500 39.000
-72.46500 53.000
-71.26500 54.000
-70.06500 62.000
-68.86500 64.000
-67.66500 52.000
-66.46500 54.000
-65.26500 70.000
-64.06500 48.000
-62.86500 58.000
-61.66500 56.000
-60.46500 62.000
-59.26500 54.000
-58.06500 54.000
-56.86500 72.000
-55.66500 68.000
-54.46500 108.000
-53.26500 67.000
-52.06500 68.000
-50.86500 55.000
-49.66500 63.000
-48.46500 64.000
-47.26500 56.000
-46.06500 50.000
-44.86500 54.000
-43.66500 38.000
-42.46500 54.000
-41.26500 42.000
-40.06500 50.000
-38.86500 47.000
-37.66500 54.000
-36.46500 52.000
-35.26500 49.000
-34.06500 56.000
-32.86500 56.000
-31.66500 52.000
-30.46500 34.000
-29.26500 50.000
-28.06500 52.000
-26.86500 38.000
-25.66500 51.000
-24.46500 41.000
-23.26500 43.000
-22.06500 36.000
-20.86500 37.000
-19.66500 47.000
-18.46500 32.000
-17.26500 51.000
-16.06500 41.000
-14.86500 44.000
-13.66500 48.000
-12.46500 47.000
-11.26500 34.000
-10.06500 51.000
-8.86500 47.000
-7.66500 51.000
-6.46500 37.000
-5.26500 50.000
-4.06500 50.000
-2.86500 42.000
-1.66500 40.000
-0.46500 35.000
0.73500 49.000
1.93500 40.000
3.13500 39.000
4.33500 36.000
5.53500 25.000
6.73500 36.000
7.93500 41.000
9.13500 29.000
10.33500 25.000
11.53500 20.000
12.73500 30.000
13.93500 39.000
15.13500 30.000
16.33500 29.000
17.53500 32.000
18.73500 24.000
19.93500 29.000
21.13500 25.000
22.33500 35.000
23.53500 32.000
24.73500 37.000
25.93500 27.000
27.13500 35.000
28.33500 39.000
29.53500 35.000
30.73500 30.000
31.93500 40.000
33.13500 43.000
34.33500 48.000
35.53500 44.000
36.73500 47.000
37.93500 50.000
39.13500 48.000
40.33500 43.000
41.53500 53.000
42.73500 39.000
43.93500 50.000
45.13500 43.000
46.33500 40.000
47.53500 47.000
48.73500 58.000
49.93500 72.000
51.13500 58.000
52.33500 118.000
53.53500 56.000
54.73500 55.000
55.93500 49.000
57.13500 49.000
58.33500 43.000
59.53500 52.000
60.73500 51.000
61.93500 43.000
63.13500 46.000
64.33500 51.000
65.53500 39.000
66.73500 35.000
67.93500 54.000
69.13500 51.000
70.33500 43.000
71.53500 38.000
72.73500 62.000
73.93500 42.000
75.13500 47.000
76.33500 36.000
77.53500 43.000
78.73500 47.000
79.93500 45.000
81.13500 49.000
82.33500 49.000
83.53500 52.000
84.73500 50.000
85.93500 36.000
87.13500 46.000
88.33500 61.000
89.53500 50.000
90.73500 52.000
91.93500 51.000
93.13500 52.000
94.33500 43.000
95.53500 36.000
96.73500 38.000
97.93500 70.000
99.13500 52.000
100.335 55.000
101.535 72.000
102.735 58.000
103.935 56.000
105.135 66.000
106.335 52.000
107.535 73.000
108.735 72.000
109.935 45.000
111.135 58.000
112.335 62.000
113.535 53.000
114.735 53.000
115.935 58.000
117.135 71.000
118.335 62.000
119.535 55.000
120.735 63.000
121.935 59.000
123.135 63.000
124.335 63.000
125.535 46.000
126.735 43.000
127.935 43.000
129.135 62.000
130.335 63.000
131.535 51.000
132.735 45.000
133.935 44.000
135.135 38.000
136.335 53.000
137.535 46.000
138.735 44.000
139.935 48.000
141.135 41.000
142.335 45.000
143.535 44.000
144.735 43.000
145.935 48.000
147.135 41.000
148.335 43.000
149.535 54.000
150.735 53.000
151.935 39.000
153.135 63.000
154.335 60.000
155.535 44.000
156.735 45.000
157.935 50.000
159.135 48.000
160.335 41.000
161.535 44.000
162.735 55.000
163.935 43.000
165.135 48.000
166.335 46.000
167.535 44.000
168.735 54.000
169.935 47.000
171.135 28.000
172.335 47.000
173.535 52.000
174.735 51.000
175.935 40.000
177.135 45.000
178.335 34.000
179.535 47.000
180.735 40.000
181.935 34.000
183.135 41.000
184.335 35.000
185.535 35.000
186.735 33.000
187.935 35.000
189.135 31.000
190.335 21.000
191.535 25.000
192.735 24.000
193.935 35.000
195.135 28.000
196.335 29.000
197.535 36.000
198.735 29.000
199.935 34.000
201.135 37.000
202.335 37.000
203.535 33.000
204.735 42.000
205.935 39.000
207.135 41.000
208.335 45.000
209.535 54.000
210.735 46.000
211.935 47.000
213.135 51.000
214.335 50.000
215.535 49.000
216.735 41.000
217.935 41.000
219.135 41.000
220.335 56.000
221.535 49.000
222.735 48.000
223.935 40.000
225.135 49.000
226.335 41.000
227.535 60.000
228.735 49.000
229.935 62.000
231.135 59.000
232.235 74.000