Folder: DataAnalysis/data/W6853r/XRD_2ThetaOmega

Note: data/W6853r/XRD_2ThetaOmega/W6853r_peaks.TXT
No.	Label	Pos. [°2Th.]	FWHM Left [°2Th.]	Area [cts*°2Th.]	Backgr.[cts]	d-spacing [Å]	Height [cts]	Shape Left	Status	Integral Breadth [°2Th.]	FWHM Right [°2Th.]	Shape Right	Obs. Lorentz B [°2Th.]	Obs. Gauss B [°2Th.]	Instr. Lorentz B [°2Th.]	Instr. Gauss B [°2Th.]	Crystallite Size [Å]	Micro Strain [%]	Crystallite Size only [Å]	Micro Strain only [%]
1	Cr2O3 0 1 2	24,217(1)	0,338(5)	116,61	21,36	3,67227	241(3)	0,79(2)	Included	0,483370	 	 	0,394395	0,179393	0,074677	0,063261	282,367900	0,341421	217,448300	0,844401
2	Al2O3 0 1 2	25,53018(4)	0,04768(9)	2208,33	40,05	3,48624	39836(74)	0,262(2)	Included	0,055436	 	 	0,016306	0,044377	0,074548	0,063152	-1553,998000	-0,086536	28617,530000	0,006091

Note: README.md
# Methods
## RSM analysis

Check out [doc](documentation/RSM.md)

File: W6853r_absolute_2th-om_10-130deg_PIXscan_17min_5.xy
10.0035 22.0
10.4072 25.0
10.811 30.0
11.2147 14.0
11.6185 22.0
12.0222 17.0
12.426 14.0
12.8298 24.0
13.2335 22.0
13.6373 21.0
14.041 13.0
14.4448 25.0
14.8485 16.0
15.2523 24.0
15.656 15.0
16.0598 19.0
16.4636 19.0
16.8673 23.0
17.2711 15.0
17.6748 14.0
18.0786 16.0
18.4823 16.0
18.8861 17.0
19.2899 20.0
19.6936 16.0
20.0974 20.0
20.5011 16.0
20.9049 15.0
21.3086 9.0
21.7124 15.0
22.1161 15.0
22.5199 19.0
22.9237 20.0
23.3274 20.0
23.7312 35.0
24.1349 310.0
24.5387 87.0
24.9424 56.0
25.3462 145.0
25.75 302.0
26.1537 97.0
26.5575 38.0
26.9612 20.0
27.365 16.0
27.7687 18.0
28.1725 12.0
28.5762 20.0
28.98 13.0
29.3838 11.0
29.7875 9.0
30.1913 11.0
30.595 20.0
30.9988 12.0
31.4025 14.0
31.8063 9.0
32.2101 9.0
32.6138 13.0
33.0176 9.0
33.4213 15.0
33.8251 11.0
34.2288 8.0
34.6326 11.0
35.0363 15.0
35.4401 5.0
35.8439 13.0
36.2476 9.0
36.6514 8.0
37.0551 12.0
37.4589 13.0
37.8626 14.0
38.2664 9.0
38.6702 17.0
39.0739 5.0
39.4777 9.0
39.8814 15.0
40.2852 9.0
40.6889 6.0
41.0927 8.0
41.4964 14.0
41.9002 10.0
42.304 10.0
42.7077 13.0
43.1115 10.0
43.5152 13.0
43.919 19.0
44.3227 22.0
44.7265 18.0
45.1303 10.0
45.534 10.0
45.9378 12.0
46.3415 12.0
46.7453 14.0
47.149 65.0
47.5528 17.0
47.9565 14.0
48.3603 11.0
48.7641 12.0
49.1678 15.0
49.5716 14.0
49.9753 22.0
50.3791 19.0
50.7828 19.0
51.1866 19.0
51.5903 38.0
51.9941 64.0
52.3979 765.0
52.8016 392.0
53.2054 103.0
53.6091 51.0
54.0129 35.0
54.4166 32.0
54.8204 15.0
55.2242 18.0
55.6279 15.0
56.0317 13.0
56.4354 13.0
56.8392 21.0
57.2429 10.0
57.6467 13.0
58.0504 8.0
58.4542 12.0
58.858 9.0
59.2617 16.0
59.6655 12.0
60.0692 7.0
60.473 11.0
60.8767 10.0
61.2805 11.0
61.6843 22.0
62.088 13.0
62.4918 7.0
62.8955 10.0
63.2993 14.0
63.703 8.0
64.1068 11.0
64.5105 10.0
64.9143 14.0
65.3181 12.0
65.7218 8.0
66.1256 11.0
66.5293 9.0
66.9331 8.0
67.3368 6.0
67.7406 11.0
68.1444 6.0
68.5481 11.0
68.9519 9.0
69.3556 8.0
69.7594 12.0
70.1631 11.0
70.5669 16.0
70.9706 13.0
71.3744 10.0
71.7782 16.0
72.1819 15.0
72.5857 9.0
72.9894 16.0
73.3932 12.0
73.7969 11.0
74.2007 8.0
74.6045 16.0
75.0082 7.0
75.412 11.0
75.8157 17.0
76.2195 12.0
76.6232 14.0
77.027 11.0
77.4307 10.0
77.8345 14.0
78.2383 21.0
78.642 15.0
79.0458 15.0
79.4495 16.0
79.8533 9.0
80.257 12.0
80.6608 11.0
81.0646 9.0
81.4683 9.0
81.8721 13.0
82.2758 18.0
82.6796 21.0
83.0833 84.0
83.4871 210.0
83.8908 21.0
84.2946 10.0
84.6984 12.0
85.1021 12.0
85.5059 12.0
85.9096 11.0
86.3134 16.0
86.7171 12.0
87.1209 13.0
87.5247 12.0
87.9284 9.0
88.3322 12.0
88.7359 15.0
89.1397 9.0
89.5434 11.0
89.9472 11.0
90.3509 8.0
90.7547 17.0
91.1585 12.0
91.5622 9.0
91.966 16.0
92.3697 11.0
92.7735 10.0
93.1772 22.0
93.581 14.0
93.9848 16.0
94.3885 13.0
94.7923 15.0
95.196 9.0
95.5998 8.0
96.0035 13.0
96.4073 10.0
96.811 17.0
97.2148 10.0
97.6186 19.0
98.0223 10.0
98.4261 12.0
98.8298 16.0
99.2336 12.0
99.6373 10.0
100.041 12.0
100.445 11.0
100.849 14.0
101.252 10.0
101.656 23.0
102.06 3.0
102.464 12.0
102.867 16.0
103.271 10.0
103.675 11.0
104.079 13.0
104.482 9.0
104.886 15.0
105.29 22.0
105.694 9.0
106.097 11.0
106.501 16.0
106.905 8.0
107.309 11.0
107.712 12.0
108.116 9.0
108.52 11.0
108.924 10.0
109.327 10.0
109.731 13.0
110.135 5.0
110.539 9.0
110.943 10.0
111.346 14.0
111.75 10.0
112.154 10.0
112.558 16.0
112.961 13.0
113.365 10.0
113.769 13.0
114.173 19.0
114.576 14.0
114.98 14.0
115.384 11.0
115.788 14.0
116.191 22.0
116.595 15.0
116.999 11.0
117.403 11.0
117.806 14.0
118.21 12.0
118.614 7.0
119.018 14.0
119.421 10.0
119.825 16.0
120.229 14.0
120.633 14.0
121.036 14.0
121.44 14.0
121.844 20.0
122.248 20.0
122.651 22.0
123.055 19.0
123.459 27.0
123.863 41.0
124.266 107.0
124.67 2006.0
125.074 1423.0
125.478 83.0
125.881 39.0
126.285 34.0
126.689 26.0
127.093 33.0
127.497 20.0
127.9 21.0
128.304 23.0
128.708 15.0
129.112 12.0
129.515 14.0
129.919 21.0
129.998 19.0