Folder: DataAnalysis/data/W6856a/XRD_2ThetaOmega

Note: data/W6856a/XRD_2ThetaOmega/W6856a_peaks.TXT
No.	Label	Pos. [°2Th.]	FWHM Left [°2Th.]	Area [cts*°2Th.]	Backgr.[cts]	d-spacing [Å]	Height [cts]	Shape Left	Status	Integral Breadth [°2Th.]	FWHM Right [°2Th.]	Shape Right	Obs. Lorentz B [°2Th.]	Obs. Gauss B [°2Th.]	Instr. Lorentz B [°2Th.]	Instr. Gauss B [°2Th.]	Crystallite Size [Å]	Micro Strain [%]	Crystallite Size only [Å]	Micro Strain only [%]
1	Cr2O3 1 1 0	35,3727(6)	0,301(2)	345,89	13,36	2,53550	847(6)	0,666(9)	Included	0,408389	 	 	0,285994	0,197963	0,073963	0,062658	436,957600	0,256953	269,644900	0,470155
2	Al2O3 1 1 0	37,71701(4)	0,05022(9)	1922,67	64,81	2,38311	32604(62)	0,290(4)	Included	0,058971	 	 	0,019087	0,045963	0,073930	0,062631	-1700,786000	-0,054348	29493,440000	0,004040
3	Cr2O3 2 2 0	74,982(8)	0,77(2)	27,64	13,03	1,26562	29(2)	0,48(9)	Included	0,967743	 	 	0,503500	0,613190	0,081175	0,068769	263,418100	0,346600	122,822800	0,515222
4	Al2O3 2 2 0	80,65323(9)	0,0631(3)	671,54	14,24	1,19031	8169(26)	0,567(5)	Included	0,082205	 	 	0,049784	0,046509	0,084079	0,071228	-3376,100000	-0,027730	36609,920000	0,001626

Note: README.md
# Methods
## RSM analysis

Check out [doc](documentation/RSM.md)

File: W6856a_absolute_2th-om_10-130deg_PIXscan_17min_5.xy
10.0035 18.0
10.4072 25.0
10.811 33.0
11.2147 29.0
11.6185 15.0
12.0222 17.0
12.426 18.0
12.8298 21.0
13.2335 15.0
13.6373 18.0
14.041 16.0
14.4448 10.0
14.8485 10.0
15.2523 8.0
15.656 21.0
16.0598 14.0
16.4636 23.0
16.8673 11.0
17.2711 18.0
17.6748 21.0
18.0786 11.0
18.4823 16.0
18.8861 6.0
19.2899 19.0
19.6936 12.0
20.0974 10.0
20.5011 13.0
20.9049 13.0
21.3086 14.0
21.7124 9.0
22.1161 18.0
22.5199 15.0
22.9237 8.0
23.3274 6.0
23.7312 11.0
24.1349 8.0
24.5387 11.0
24.9424 6.0
25.3462 6.0
25.75 15.0
26.1537 9.0
26.5575 7.0
26.9612 8.0
27.365 8.0
27.7687 8.0
28.1725 7.0
28.5762 4.0
28.98 7.0
29.3838 10.0
29.7875 5.0
30.1913 9.0
30.595 8.0
30.9988 10.0
31.4025 10.0
31.8063 11.0
32.2101 9.0
32.6138 8.0
33.0176 6.0
33.4213 12.0
33.8251 19.0
34.2288 18.0
34.6326 29.0
35.0363 119.0
35.4401 1161.0
35.8439 147.0
36.2476 48.0
36.6514 30.0
37.0551 26.0
37.4589 103.0
37.8626 1964.0
38.2664 107.0
38.6702 55.0
39.0739 37.0
39.4777 13.0
39.8814 14.0
40.2852 10.0
40.6889 17.0
41.0927 17.0
41.4964 11.0
41.9002 8.0
42.304 8.0
42.7077 10.0
43.1115 8.0
43.5152 15.0
43.919 10.0
44.3227 16.0
44.7265 11.0
45.1303 6.0
45.534 12.0
45.9378 11.0
46.3415 6.0
46.7453 13.0
47.149 8.0
47.5528 15.0
47.9565 4.0
48.3603 8.0
48.7641 9.0
49.1678 12.0
49.5716 12.0
49.9753 15.0
50.3791 18.0
50.7828 10.0
51.1866 7.0
51.5903 7.0
51.9941 6.0
52.3979 8.0
52.8016 10.0
53.2054 14.0
53.6091 20.0
54.0129 12.0
54.4166 11.0
54.8204 9.0
55.2242 13.0
55.6279 12.0
56.0317 12.0
56.4354 14.0
56.8392 11.0
57.2429 16.0
57.6467 7.0
58.0504 8.0
58.4542 12.0
58.858 11.0
59.2617 8.0
59.6655 10.0
60.0692 15.0
60.473 8.0
60.8767 6.0
61.2805 12.0
61.6843 13.0
62.088 11.0
62.4918 17.0
62.8955 15.0
63.2993 9.0
63.703 12.0
64.1068 14.0
64.5105 6.0
64.9143 11.0
65.3181 8.0
65.7218 10.0
66.1256 9.0
66.5293 16.0
66.9331 16.0
67.3368 8.0
67.7406 7.0
68.1444 9.0
68.5481 11.0
68.9519 9.0
69.3556 15.0
69.7594 9.0
70.1631 7.0
70.5669 14.0
70.9706 11.0
71.3744 13.0
71.7782 12.0
72.1819 8.0
72.5857 7.0
72.9894 17.0
73.3932 12.0
73.7969 14.0
74.2007 20.0
74.6045 26.0
75.0082 49.0
75.412 30.0
75.8157 21.0
76.2195 10.0
76.6232 45.0
77.027 17.0
77.4307 13.0
77.8345 10.0
78.2383 7.0
78.642 11.0
79.0458 10.0
79.4495 15.0
79.8533 24.0
80.257 60.0
80.6608 7313.0
81.0646 101.0
81.4683 33.0
81.8721 23.0
82.2758 25.0
82.6796 33.0
83.0833 19.0
83.4871 13.0
83.8908 18.0
84.2946 9.0
84.6984 16.0
85.1021 10.0
85.5059 10.0
85.9096 16.0
86.3134 20.0
86.7171 10.0
87.1209 9.0
87.5247 13.0
87.9284 11.0
88.3322 11.0
88.7359 7.0
89.1397 9.0
89.5434 9.0
89.9472 10.0
90.3509 9.0
90.7547 14.0
91.1585 8.0
91.5622 15.0
91.966 18.0
92.3697 13.0
92.7735 14.0
93.1772 14.0
93.581 7.0
93.9848 11.0
94.3885 13.0
94.7923 17.0
95.196 11.0
95.5998 11.0
96.0035 8.0
96.4073 13.0
96.811 22.0
97.2148 7.0
97.6186 7.0
98.0223 11.0
98.4261 14.0
98.8298 6.0
99.2336 17.0
99.6373 7.0
100.041 13.0
100.445 15.0
100.849 6.0
101.252 15.0
101.656 16.0
102.06 16.0
102.464 10.0
102.867 6.0
103.271 8.0
103.675 10.0
104.079 17.0
104.482 9.0
104.886 13.0
105.29 15.0
105.694 15.0
106.097 10.0
106.501 7.0
106.905 19.0
107.309 11.0
107.712 16.0
108.116 7.0
108.52 15.0
108.924 13.0
109.327 19.0
109.731 16.0
110.135 12.0
110.539 10.0
110.943 7.0
111.346 13.0
111.75 12.0
112.154 12.0
112.558 12.0
112.961 9.0
113.365 10.0
113.769 12.0
114.173 19.0
114.576 16.0
114.98 18.0
115.384 9.0
115.788 9.0
116.191 9.0
116.595 13.0
116.999 14.0
117.403 8.0
117.806 12.0
118.21 14.0
118.614 8.0
119.018 6.0
119.421 14.0
119.825 8.0
120.229 12.0
120.633 9.0
121.036 14.0
121.44 10.0
121.844 7.0
122.248 9.0
122.651 24.0
123.055 17.0
123.459 14.0
123.863 18.0
124.266 12.0
124.67 8.0
125.074 12.0
125.478 9.0
125.881 14.0
126.285 10.0
126.689 14.0
127.093 10.0
127.497 10.0
127.9 9.0
128.304 11.0
128.708 12.0
129.112 24.0
129.515 10.0
129.919 5.0
129.998 17.0