Folder: DataAnalysis/data/W6856a/XRD_Omega

Note: README.md
# Methods
## RSM analysis

Check out [doc](documentation/RSM.md)

File: W6856a_Cr2O3_scan_omega_2deg_step_0.002deg0_5.xy
16.51090 1120.0
16.51890 1012.0
16.52690 1013.0
16.53490 1055.0
16.54290 1018.0
16.55090 1102.0
16.55890 1127.0
16.56690 1173.0
16.57490 1120.0
16.58290 1155.0
16.59090 1186.0
16.59890 1225.0
16.60690 1252.0
16.61490 1202.0
16.62290 1256.0
16.63090 1198.0
16.63890 1286.0
16.64690 1333.0
16.65490 1331.0
16.66290 1331.0
16.67090 1378.0
16.67890 1375.0
16.68690 1447.0
16.69490 1362.0
16.70290 1478.0
16.71090 1458.0
16.71890 1518.0
16.72690 1391.0
16.73490 1542.0
16.74290 1658.0
16.75090 1642.0
16.75890 1553.0
16.76690 1633.0
16.77490 1609.0
16.78290 1665.0
16.79090 1709.0
16.79890 1719.0
16.80690 1722.0
16.81490 1672.0
16.82290 1829.0
16.83090 1755.0
16.83890 1819.0
16.84690 1810.0
16.85490 1862.0
16.86290 1911.0
16.87090 1935.0
16.87890 1945.0
16.88690 2015.0
16.89490 1950.0
16.90290 2114.0
16.91090 2025.0
16.91890 2058.0
16.92690 2125.0
16.93490 2210.0
16.94290 2107.0
16.95090 2226.0
16.95890 2162.0
16.96690 2167.0
16.97490 2321.0
16.98290 2408.0
16.99090 2352.0
16.99890 2369.0
17.00690 2331.0
17.01490 2430.0
17.02290 2421.0
17.03090 2385.0
17.03890 2563.0
17.04690 2476.0
17.05490 2587.0
17.06290 2559.0
17.07090 2534.0
17.07890 2599.0
17.08690 2509.0
17.09490 2611.0
17.10290 2683.0
17.11090 2579.0
17.11890 2758.0
17.12690 2737.0
17.13490 2721.0
17.14290 2905.0
17.15090 2863.0
17.15890 2912.0
17.16690 2892.0
17.17490 2979.0
17.18290 2949.0
17.19090 2922.0
17.19890 2938.0
17.20690 3008.0
17.21490 3087.0
17.22290 3007.0
17.23090 3074.0
17.23890 3126.0
17.24690 3195.0
17.25490 3045.0
17.26290 3142.0
17.27090 3109.0
17.27890 3193.0
17.28690 3324.0
17.29490 3428.0
17.30290 3313.0
17.31090 3217.0
17.31890 3245.0
17.32690 3328.0
17.33490 3345.0
17.34290 3329.0
17.35090 3334.0
17.35890 3330.0
17.36690 3291.0
17.37490 3412.0
17.38290 3550.0
17.39090 3451.0
17.39890 3418.0
17.40690 3558.0
17.41490 3480.0
17.42290 3404.0
17.43090 3485.0
17.43890 3371.0
17.44690 3434.0
17.45490 3561.0
17.46290 3428.0
17.47090 3548.0
17.47890 3429.0
17.48690 3430.0
17.49490 3483.0
17.50290 3511.0
17.51090 3479.0
17.51890 3548.0
17.52690 3605.0
17.53490 3400.0
17.54290 3372.0
17.55090 3337.0
17.55890 3386.0
17.56690 3328.0
17.57490 3408.0
17.58290 3338.0
17.59090 3320.0
17.59890 3336.0
17.60690 3329.0
17.61490 3529.0
17.62290 3357.0
17.63090 3346.0
17.63890 3229.0
17.64690 3289.0
17.65490 3430.0
17.66290 3268.0
17.67090 3314.0
17.67890 3333.0
17.68690 3185.0
17.69490 3160.0
17.70290 3261.0
17.71090 3161.0
17.71890 3137.0
17.72690 3178.0
17.73490 3113.0
17.74290 3179.0
17.75090 3066.0
17.75890 3132.0
17.76690 3041.0
17.77490 3021.0
17.78290 2905.0
17.79090 3030.0
17.79890 3049.0
17.80690 2913.0
17.81490 2950.0
17.82290 2984.0
17.83090 2996.0
17.83890 2997.0
17.84690 3121.0
17.85490 3178.0
17.86290 3563.0
17.87090 3844.0
17.87890 3942.0
17.88690 3849.0
17.89490 3627.0
17.90290 3340.0
17.91090 3168.0
17.91890 3061.0
17.92690 3018.0
17.93490 3020.0
17.94290 2959.0
17.95090 2912.0
17.95890 2984.0
17.96690 2867.0
17.97490 2658.0
17.98290 2764.0
17.99090 2608.0
17.99890 2702.0
18.00690 2847.0
18.01490 2771.0
18.02290 2783.0
18.03090 2748.0
18.03890 2511.0
18.04690 2405.0
18.05490 2270.0
18.06290 2373.0
18.07090 2189.0
18.07890 2343.0
18.08690 2225.0
18.09490 2213.0
18.10290 2133.0
18.11090 2110.0
18.11890 2133.0
18.12690 2128.0
18.13490 1990.0
18.14290 2054.0
18.15090 1976.0
18.15890 2028.0
18.16690 1878.0
18.17490 1829.0
18.18290 1771.0
18.19090 1859.0
18.19890 1806.0
18.20690 1775.0
18.21490 1746.0
18.22290 1656.0
18.23090 1691.0
18.23890 1711.0
18.24690 1617.0
18.25490 1676.0
18.26290 1548.0
18.27090 1655.0
18.27890 1617.0
18.28690 1511.0
18.29490 1585.0
18.30290 1539.0
18.31090 1448.0
18.31890 1352.0
18.32690 1421.0
18.33490 1468.0
18.34290 1354.0
18.35090 1416.0
18.35890 1388.0
18.36690 1323.0
18.37490 1318.0
18.38290 1272.0
18.39090 1263.0
18.39890 1264.0
18.40690 1218.0
18.41490 1225.0
18.42290 1183.0
18.43090 1191.0
18.43890 1139.0
18.44690 1205.0
18.45490 1089.0
18.46290 1145.0
18.47090 1158.0
18.47890 1102.0
18.48690 1106.0
18.49490 1094.0