Folder: DataAnalysis/data/W6959m/XRD_2ThetaOmega

Note: README.md
# Methods
## RSM analysis

Check out [doc](documentation/RSM.md)

File: m_scan_2th-om_10-130deg_PIXscan_17min_C2.xy
10.0035 46.0
10.4072 46.0
10.811 44.0
11.2147 36.0
11.6185 50.0
12.0222 35.0
12.426 38.0
12.8298 36.0
13.2335 40.0
13.6373 38.0
14.041 32.0
14.4448 29.0
14.8485 32.0
15.2523 44.0
15.656 39.0
16.0598 48.0
16.4636 34.0
16.8673 29.0
17.2711 34.0
17.6748 35.0
18.0786 38.0
18.4823 32.0
18.8861 22.0
19.2899 28.0
19.6936 26.0
20.0974 25.0
20.5011 25.0
20.9049 27.0
21.3086 21.0
21.7124 25.0
22.1161 29.0
22.5199 24.0
22.9237 31.0
23.3274 12.0
23.7312 29.0
24.1349 23.0
24.5387 26.0
24.9424 27.0
25.3462 17.0
25.75 25.0
26.1537 26.0
26.5575 18.0
26.9612 23.0
27.365 29.0
27.7687 24.0
28.1725 20.0
28.5762 16.0
28.98 18.0
29.3838 20.0
29.7875 21.0
30.1913 18.0
30.595 21.0
30.9988 20.0
31.4025 20.0
31.8063 28.0
32.2101 23.0
32.6138 27.0
33.0176 17.0
33.4213 27.0
33.8251 23.0
34.2288 22.0
34.6326 27.0
35.0363 29.0
35.4401 24.0
35.8439 27.0
36.2476 20.0
36.6514 20.0
37.0551 33.0
37.4589 20.0
37.8626 22.0
38.2664 33.0
38.6702 34.0
39.0739 24.0
39.4777 32.0
39.8814 15.0
40.2852 20.0
40.6889 26.0
41.0927 18.0
41.4964 20.0
41.9002 23.0
42.304 33.0
42.7077 16.0
43.1115 32.0
43.5152 24.0
43.919 31.0
44.3227 45.0
44.7265 23.0
45.1303 19.0
45.534 31.0
45.9378 16.0
46.3415 24.0
46.7453 21.0
47.149 28.0
47.5528 31.0
47.9565 14.0
48.3603 25.0
48.7641 26.0
49.1678 23.0
49.5716 27.0
49.9753 32.0
50.3791 23.0
50.7828 22.0
51.1866 19.0
51.5903 21.0
51.9941 11.0
52.3979 29.0
52.8016 20.0
53.2054 21.0
53.6091 16.0
54.0129 35.0
54.4166 25.0
54.8204 23.0
55.2242 30.0
55.6279 24.0
56.0317 28.0
56.4354 24.0
56.8392 22.0
57.2429 27.0
57.6467 42.0
58.0504 38.0
58.4542 28.0
58.858 31.0
59.2617 21.0
59.6655 37.0
60.0692 28.0
60.473 37.0
60.8767 502.0
61.2805 31.0
61.6843 44.0
62.088 39.0
62.4918 40.0
62.8955 30.0
63.2993 42.0
63.703 68.0
64.1068 118.0
64.5105 1184.0
64.9143 2637.0
65.3181 170.0
65.7218 80.0
66.1256 87.0
66.5293 109.0
66.9331 154.0
67.3368 203.0
67.7406 592.0
68.1444 74288.0
68.5481 1301.0
68.9519 297.0
69.3556 111.0
69.7594 61.0
70.1631 40.0
70.5669 28.0
70.9706 33.0
71.3744 30.0
71.7782 29.0
72.1819 29.0
72.5857 34.0
72.9894 34.0
73.3932 24.0
73.7969 25.0
74.2007 29.0
74.6045 29.0
75.0082 28.0
75.412 30.0
75.8157 37.0
76.2195 23.0
76.6232 29.0
77.027 23.0
77.4307 29.0
77.8345 37.0
78.2383 38.0
78.642 21.0
79.0458 24.0
79.4495 26.0
79.8533 30.0
80.257 26.0
80.6608 25.0
81.0646 29.0
81.4683 28.0
81.8721 30.0
82.2758 29.0
82.6796 31.0
83.0833 29.0
83.4871 34.0
83.8908 26.0
84.2946 27.0
84.6984 38.0
85.1021 22.0
85.5059 31.0
85.9096 24.0
86.3134 25.0
86.7171 23.0
87.1209 30.0
87.5247 34.0
87.9284 36.0
88.3322 27.0
88.7359 23.0
89.1397 13.0
89.5434 21.0
89.9472 19.0
90.3509 24.0
90.7547 26.0
91.1585 28.0
91.5622 22.0
91.966 29.0
92.3697 22.0
92.7735 27.0
93.1772 23.0
93.581 35.0
93.9848 23.0
94.3885 34.0
94.7923 24.0
95.196 19.0
95.5998 24.0
96.0035 27.0
96.4073 18.0
96.811 26.0
97.2148 27.0
97.6186 36.0
98.0223 32.0
98.4261 33.0
98.8298 25.0
99.2336 28.0
99.6373 28.0
100.041 35.0
100.445 32.0
100.849 23.0
101.252 26.0
101.656 39.0
102.06 28.0
102.464 28.0
102.867 25.0
103.271 32.0
103.675 28.0
104.079 23.0
104.482 24.0
104.886 26.0
105.29 28.0
105.694 27.0
106.097 22.0
106.501 28.0
106.905 22.0
107.309 22.0
107.712 32.0
108.116 21.0
108.52 30.0
108.924 24.0
109.327 36.0
109.731 27.0
110.135 25.0
110.539 28.0
110.943 24.0
111.346 23.0
111.75 32.0
112.154 22.0
112.558 24.0
112.961 25.0
113.365 27.0
113.769 18.0
114.173 26.0
114.576 27.0
114.98 26.0
115.384 37.0
115.788 23.0
116.191 37.0
116.595 25.0
116.999 23.0
117.403 33.0
117.806 30.0
118.21 22.0
118.614 21.0
119.018 14.0
119.421 28.0
119.825 29.0
120.229 28.0
120.633 29.0
121.036 20.0
121.44 25.0
121.844 29.0
122.248 21.0
122.651 23.0
123.055 25.0
123.459 30.0
123.863 29.0
124.266 34.0
124.67 21.0
125.074 31.0
125.478 24.0
125.881 26.0
126.285 31.0
126.689 34.0
127.093 23.0
127.497 38.0
127.9 33.0
128.304 34.0
128.708 28.0
129.112 16.0
129.515 23.0
129.919 28.0
129.998 26.0