Folder: DataAnalysis/data/W6724/XRD_Omega

Note: data/W6724/XRD_Omega/W6724_omega_peaks.TXT
No.	Label	Pos. [記mega]	FWHM Left [記mega]	Area [cts*記mega]	Backgr.[cts]	d-spacing [魔	Height [cts]	Shape Left	Status	Integral Breadth [記mega]	FWHM Right [記mega]	Shape Right	Obs. Lorentz B [記mega]	Obs. Gauss B [記mega]	Instr. Lorentz B [記mega]	Instr. Gauss B [記mega]	Crystallite Size [魔	Micro Strain [%]	Crystallite Size only [魔	Micro Strain only [%]
1	Cr2O3 3 0 0	32,7213(5)	0,68(5)	3806,07	708,76	 	4043(425)	0,7(1)	Included	0,941468	 	 	0,700249	0,418487	0,074051	0,062732	146,910100	0,614970	103,645200	1,319230

Note: README.md
# Methods
## RSM analysis

Check out [doc](documentation/RSM.md)

File: W6724_Cr2O3_scan_omega_2deg_step_0.002deg0_4.xy
31.75700 722.0
31.76500 783.0
31.77300 749.0
31.78100 815.0
31.78900 798.0
31.79700 782.0
31.80500 875.0
31.81300 856.0
31.82100 892.0
31.82900 916.0
31.83700 882.0
31.84500 938.0
31.85300 918.0
31.86100 955.0
31.86900 1095.0
31.87700 1093.0
31.88500 1028.0
31.89300 1054.0
31.90100 1051.0
31.90900 1103.0
31.91700 1093.0
31.92500 1189.0
31.93300 1126.0
31.94100 1136.0
31.94900 1186.0
31.95700 1295.0
31.96500 1262.0
31.97300 1282.0
31.98100 1256.0
31.98900 1363.0
31.99700 1285.0
32.00500 1378.0
32.01300 1428.0
32.02100 1399.0
32.02900 1492.0
32.03700 1618.0
32.04500 1619.0
32.05300 1615.0
32.06100 1609.0
32.06900 1641.0
32.07700 1709.0
32.08500 1670.0
32.09300 1718.0
32.10100 1730.0
32.10900 1865.0
32.11700 1801.0
32.12500 1810.0
32.13300 1929.0
32.14100 1992.0
32.14900 2065.0
32.15700 2074.0
32.16500 2091.0
32.17300 2151.0
32.18100 2215.0
32.18900 2200.0
32.19700 2360.0
32.20500 2346.0
32.21300 2342.0
32.22100 2472.0
32.22900 2496.0
32.23700 2487.0
32.24500 2524.0
32.25300 2577.0
32.26100 2718.0
32.26900 2689.0
32.27700 2797.0
32.28500 2802.0
32.29300 2961.0
32.30100 3007.0
32.30900 3109.0
32.31700 3192.0
32.32500 3106.0
32.33300 3236.0
32.34100 3406.0
32.34900 3318.0
32.35700 3499.0
32.36500 3431.0
32.37300 3647.0
32.38100 3590.0
32.38900 3787.0
32.39700 3877.0
32.40500 3893.0
32.41300 3864.0
32.42100 4097.0
32.42900 4101.0
32.43700 4357.0
32.44500 4179.0
32.45300 4208.0
32.46100 4500.0
32.46900 4477.0
32.47700 4570.0
32.48500 4759.0
32.49300 4699.0
32.50100 4868.0
32.50900 4905.0
32.51700 5075.0
32.52500 5076.0
32.53300 5242.0
32.54100 5358.0
32.54900 5347.0
32.55700 5531.0
32.56500 5539.0
32.57300 5538.0
32.58100 5697.0
32.58900 5627.0
32.59700 5866.0
32.60500 5943.0
32.61300 5955.0
32.62100 6110.0
32.62900 6138.0
32.63700 6360.0
32.64500 6272.0
32.65300 6373.0
32.66100 6287.0
32.66900 6326.0
32.67700 6422.0
32.68500 6509.0
32.69300 6667.0
32.70100 6600.0
32.70900 6616.0
32.71700 6666.0
32.72500 6601.0
32.73300 6745.0
32.74100 6541.0
32.74900 6715.0
32.75700 6859.0
32.76500 6802.0
32.77300 6637.0
32.78100 6522.0
32.78900 6451.0
32.79700 6643.0
32.80500 6378.0
32.81300 6468.0
32.82100 6493.0
32.82900 6339.0
32.83700 6312.0
32.84500 6338.0
32.85300 6368.0
32.86100 6009.0
32.86900 6033.0
32.87700 5982.0
32.88500 5675.0
32.89300 5892.0
32.90100 5781.0
32.90900 5617.0
32.91700 5592.0
32.92500 5454.0
32.93300 5384.0
32.94100 5352.0
32.94900 5196.0
32.95700 5076.0
32.96500 5005.0
32.97300 4988.0
32.98100 4844.0
32.98900 4551.0
32.99700 4524.0
33.00500 4482.0
33.01300 4398.0
33.02100 4265.0
33.02900 4166.0
33.03700 4181.0
33.04500 4107.0
33.05300 3874.0
33.06100 3909.0
33.06900 3837.0
33.07700 3619.0
33.08500 3616.0
33.09300 3537.0
33.10100 3371.0
33.10900 3267.0
33.11700 3101.0
33.12500 3036.0
33.13300 2988.0
33.14100 2864.0
33.14900 2744.0
33.15700 2702.0
33.16500 2552.0
33.17300 2612.0
33.18100 2495.0
33.18900 2405.0
33.19700 2416.0
33.20500 2317.0
33.21300 2319.0
33.22100 2144.0
33.22900 2093.0
33.23700 2060.0
33.24500 1960.0
33.25300 1998.0
33.26100 1980.0
33.26900 1834.0
33.27700 1822.0
33.28500 1776.0
33.29300 1728.0
33.30100 1680.0
33.30900 1540.0
33.31700 1575.0
33.32500 1512.0
33.33300 1544.0
33.34100 1506.0
33.34900 1382.0
33.35700 1387.0
33.36500 1394.0
33.37300 1299.0
33.38100 1332.0
33.38900 1270.0
33.39700 1197.0
33.40500 1194.0
33.41300 1099.0
33.42100 1089.0
33.42900 1101.0
33.43700 1057.0
33.44500 1030.0
33.45300 1068.0
33.46100 1028.0
33.46900 952.0
33.47700 971.0
33.48500 916.0
33.49300 951.0
33.50100 889.0
33.50900 870.0
33.51700 835.0
33.52500 883.0
33.53300 793.0
33.54100 744.0
33.54900 749.0
33.55700 727.0
33.56500 716.0
33.57300 729.0
33.58100 709.0
33.58900 733.0
33.59700 703.0
33.60500 672.0
33.61300 676.0
33.62100 611.0
33.62900 636.0
33.63700 624.0
33.64500 649.0
33.65300 555.0
33.66100 586.0
33.66900 609.0
33.67700 576.0
33.68500 571.0
33.69300 514.0
33.70100 517.0
33.70900 553.0
33.71700 520.0
33.72500 499.0
33.73300 477.0
33.74100 500.0