Folder: DataAnalysis/data/W6724/XRD_2ThetaOmega

Note: data/W6724/XRD_2ThetaOmega/W6724_peaks.TXT
No.	Label	Pos. [°2Th.]	FWHM Left [°2Th.]	Area [cts*°2Th.]	Backgr.[cts]	d-spacing [Å]	Height [cts]	Shape Left	Status	Integral Breadth [°2Th.]	FWHM Right [°2Th.]	Shape Right	Obs. Lorentz B [°2Th.]	Obs. Gauss B [°2Th.]	Instr. Lorentz B [°2Th.]	Instr. Gauss B [°2Th.]	Crystallite Size [Å]	Micro Strain [%]	Crystallite Size only [Å]	Micro Strain only [%]
1	Cr2O3 3 0 0	64,3848(2)	0,4990(6)	2383,05	666,80	1,44585	4298(7)	0,131(4)	Included	0,554472	 	 	0,083517	0,499637	0,077294	0,065482	16761,060000	0,343305	208,916000	0,346037
2	Al2O3 3 0 0	68,152390(5)	0,05984(2)	56541,96	919,11	1,37481	736656(180)	0,5276(3)	Included	0,076755	 	 	0,043507	0,045829	0,078467	0,066475	-3048,321000	-0,031060	33696,070000	0,002040

Note: README.md
# Methods
## RSM analysis

Check out [doc](documentation/RSM.md)

File: W6724_absolute_2th-om_58-72deg-20min_4.xy
58.0028 313.0
58.0496 271.0
58.0964 303.0
58.1432 295.0
58.1899 294.0
58.2367 261.0
58.2835 267.0
58.3303 294.0
58.377 270.0
58.4238 276.0
58.4706 297.0
58.5174 285.0
58.5642 275.0
58.6109 307.0
58.6577 290.0
58.7045 324.0
58.7513 309.0
58.798 293.0
58.8448 288.0
58.8916 288.0
58.9384 310.0
58.9851 304.0
59.0319 301.0
59.0787 284.0
59.1255 311.0
59.1722 262.0
59.219 309.0
59.2658 304.0
59.3126 288.0
59.3594 301.0
59.4061 294.0
59.4529 299.0
59.4997 323.0
59.5465 305.0
59.5932 281.0
59.64 273.0
59.6868 290.0
59.7336 263.0
59.7803 321.0
59.8271 280.0
59.8739 309.0
59.9207 291.0
59.9674 319.0
60.0142 279.0
60.061 321.0
60.1078 291.0
60.1546 310.0
60.2013 295.0
60.2481 320.0
60.2949 366.0
60.3417 337.0
60.3884 333.0
60.4352 317.0
60.482 328.0
60.5288 304.0
60.5755 320.0
60.6223 326.0
60.6691 366.0
60.7159 393.0
60.7627 745.0
60.8094 2172.0
60.8562 2062.0
60.903 1378.0
60.9498 732.0
60.9965 481.0
61.0433 415.0
61.0901 407.0
61.1369 393.0
61.1836 344.0
61.2304 379.0
61.2772 372.0
61.324 405.0
61.3707 390.0
61.4175 432.0
61.4643 418.0
61.5111 395.0
61.5579 401.0
61.6046 385.0
61.6514 371.0
61.6982 368.0
61.745 308.0
61.7917 371.0
61.8385 380.0
61.8853 374.0
61.9321 337.0
61.9788 355.0
62.0256 356.0
62.0724 370.0
62.1192 360.0
62.166 365.0
62.2127 355.0
62.2595 380.0
62.3063 356.0
62.3531 358.0
62.3998 359.0
62.4466 371.0
62.4934 355.0
62.5402 397.0
62.5869 323.0
62.6337 401.0
62.6805 408.0
62.7273 418.0
62.774 360.0
62.8208 428.0
62.8676 405.0
62.9144 441.0
62.9612 411.0
63.0079 443.0
63.0547 467.0
63.1015 519.0
63.1483 511.0
63.195 463.0
63.2418 500.0
63.2886 511.0
63.3354 530.0
63.3821 568.0
63.4289 539.0
63.4757 593.0
63.5225 634.0
63.5693 667.0
63.616 777.0
63.6628 778.0
63.7096 786.0
63.7564 844.0
63.8031 1004.0
63.8499 1120.0
63.8967 1198.0
63.9435 1364.0
63.9902 1554.0
64.037 1831.0
64.0838 2120.0
64.1306 2598.0
64.1773 3277.0
64.2241 3986.0
64.2709 4804.0
64.3177 6036.0
64.3645 7059.0
64.4112 7498.0
64.458 7239.0
64.5048 6688.0
64.5516 6079.0
64.5983 5177.0
64.6451 4097.0
64.6919 3442.0
64.7387 2563.0
64.7854 2156.0
64.8322 1903.0
64.879 2169.0
64.9258 4311.0
64.9725 4493.0
65.0193 2104.0
65.0661 1259.0
65.1129 903.0
65.1597 791.0
65.2064 727.0
65.2532 675.0
65.3 657.0
65.3468 663.0
65.3935 664.0
65.4403 835.0
65.4871 1335.0
65.5339 1093.0
65.5806 674.0
65.6274 583.0
65.6742 603.0
65.721 549.0
65.7678 563.0
65.8145 546.0
65.8613 538.0
65.9081 562.0
65.9549 541.0
66.0016 555.0
66.0484 563.0
66.0952 608.0
66.142 596.0
66.1887 618.0
66.2355 656.0
66.2823 593.0
66.3291 647.0
66.3758 667.0
66.4226 660.0
66.4694 689.0
66.5162 678.0
66.563 746.0
66.6097 747.0
66.6565 746.0
66.7033 819.0
66.7501 844.0
66.7968 812.0
66.8436 887.0
66.8904 846.0
66.9372 909.0
66.9839 949.0
67.0307 1052.0
67.0775 1004.0
67.1243 1070.0
67.1711 1148.0
67.2178 1157.0
67.2646 1307.0
67.3114 1338.0
67.3582 1360.0
67.4049 1459.0
67.4517 1661.0
67.4985 1724.0
67.5453 1896.0
67.592 2042.0
67.6388 2243.0
67.6856 2719.0
67.7324 3726.0
67.7791 5540.0
67.8259 7060.0
67.8727 6943.0
67.9195 7100.0
67.9663 9196.0
68.013 14711.0
68.0598 31755.0
68.1066 161123.0
68.1534 695325.0
68.2001 155484.0
68.2469 41853.0
68.2937 78587.0
68.3405 349399.0
68.3872 116651.0
68.434 23161.0
68.4808 11720.0
68.5276 8085.0
68.5743 5951.0
68.6211 4970.0
68.6679 4065.0
68.7147 3447.0
68.7615 3017.0
68.8082 2789.0
68.855 2437.0
68.9018 2216.0
68.9486 2161.0
68.9953 1934.0
69.0421 1892.0
69.0889 1793.0
69.1357 1664.0
69.1824 1513.0
69.2292 1471.0
69.276 1402.0
69.3228 1320.0
69.3696 1298.0
69.4163 1151.0
69.4631 1058.0
69.5099 1065.0
69.5567 1035.0
69.6034 1009.0
69.6502 962.0
69.697 948.0
69.7438 888.0
69.7905 919.0
69.8373 851.0
69.8841 811.0
69.9309 782.0
69.9776 719.0
70.0244 736.0
70.0712 667.0
70.118 682.0
70.1648 681.0
70.2115 651.0
70.2583 610.0
70.3051 590.0
70.3519 552.0
70.3986 567.0
70.4454 562.0
70.4922 557.0
70.539 484.0
70.5857 521.0
70.6325 485.0
70.6793 518.0
70.7261 479.0
70.7729 481.0
70.8196 498.0
70.8664 432.0
70.9132 430.0
70.96 444.0
71.0067 464.0
71.0535 464.0
71.1003 437.0
71.1471 423.0
71.1938 382.0
71.2406 438.0
71.2874 443.0
71.3342 370.0
71.3809 408.0
71.4277 404.0
71.4745 430.0
71.5213 404.0
71.5681 381.0
71.6148 400.0
71.6616 380.0
71.7084 389.0
71.7552 390.0
71.8019 356.0
71.8487 365.0
71.8955 403.0
71.9423 350.0
71.989 365.0
71.9989 399.0