Folder: DataAnalysis/data/W6724/XRD_Phi

Note: README.md
# Methods
## RSM analysis

Check out [doc](documentation/RSM.md)

File: W6724_Al2O3_phi_360deg_25min_3mm_active_3.xy
-308.185 57.000
-306.985 57.000
-305.785 67.000
-304.585 57.000
-303.385 65.000
-302.185 65.000
-300.985 61.000
-299.785 62.000
-298.585 66.000
-297.385 68.000
-296.185 61.000
-294.985 47.000
-293.785 55.000
-292.585 67.000
-291.385 69.000
-290.185 64.000
-288.985 52.000
-287.785 67.000
-286.585 64.000
-285.385 48.000
-284.185 53.000
-282.985 68.000
-281.785 59.000
-280.585 66.000
-279.385 53.000
-278.185 64.000
-276.985 61.000
-275.785 65.000
-274.585 58.000
-273.385 64.000
-272.185 63.000
-270.985 57.000
-269.785 61.000
-268.585 52.000
-267.385 67.000
-266.185 62.000
-264.985 58.000
-263.785 58.000
-262.585 57.000
-261.385 73.000
-260.185 57.000
-258.985 77.000
-257.785 71.000
-256.585 61.000
-255.385 52.000
-254.185 67.000
-252.985 73.000
-251.785 72.000
-250.585 58.000
-249.385 65.000
-248.185 91.000
-246.985 61.000
-245.785 67.000
-244.585 57.000
-243.385 75.000
-242.185 49.000
-240.985 62.000
-239.785 53.000
-238.585 69.000
-237.385 68.000
-236.185 77.000
-234.985 739.000
-233.785 59.000
-232.585 77.000
-231.385 76.000
-230.185 56.000
-228.985 68.000
-227.785 65.000
-226.585 55.000
-225.385 71.000
-224.185 65.000
-222.985 74.000
-221.785 80.000
-220.585 73.000
-219.385 53.000
-218.185 55.000
-216.985 72.000
-215.785 75.000
-214.585 56.000
-213.385 77.000
-212.185 56.000
-210.985 55.000
-209.785 65.000
-208.585 77.000
-207.385 76.000
-206.185 75.000
-204.985 63.000
-203.785 76.000
-202.585 75.000
-201.385 60.000
-200.185 59.000
-198.985 52.000
-197.785 71.000
-196.585 57.000
-195.385 80.000
-194.185 58.000
-192.985 49.000
-191.785 49.000
-190.585 56.000
-189.385 61.000
-188.185 65.000
-186.985 59.000
-185.785 50.000
-184.585 52.000
-183.385 40.000
-182.185 44.000
-180.985 49.000
-179.785 41.000
-178.585 40.000
-177.385 31.000
-176.185 54.000
-174.985 32.000
-173.785 32.000
-172.585 34.000
-171.385 29.000
-170.185 29.000
-168.985 25.000
-167.785 22.000
-166.585 31.000
-165.385 32.000
-164.185 33.000
-162.985 35.000
-161.785 42.000
-160.585 35.000
-159.385 31.000
-158.185 31.000
-156.985 30.000
-155.785 30.000
-154.585 38.000
-153.385 51.000
-152.185 44.000
-150.985 52.000
-149.785 41.000
-148.585 63.000
-147.385 52.000
-146.185 58.000
-144.985 61.000
-143.785 55.000
-142.585 66.000
-141.385 49.000
-140.185 63.000
-138.985 53.000
-137.785 48.000
-136.585 53.000
-135.385 59.000
-134.185 70.000
-132.985 59.000
-131.785 78.000
-130.585 56.000
-129.385 70.000
-128.185 79.000
-126.985 88.000
-125.785 88.000
-124.585 46.000
-123.385 55.000
-122.185 62.000
-120.985 48.000
-119.785 50.000
-118.585 52.000
-117.385 57.000
-116.185 66.000
-114.985 65.000
-113.785 54.000
-112.585 58.000
-111.385 55.000
-110.185 66.000
-108.985 56.000
-107.785 53.000
-106.585 67.000
-105.385 59.000
-104.185 75.000
-102.985 51.000
-101.785 60.000
-100.585 66.000
-99.38500 57.000
-98.18500 61.000
-96.98500 60.000
-95.78500 61.000
-94.58500 58.000
-93.38500 50.000
-92.18500 54.000
-90.98500 37.000
-89.78500 60.000
-88.58500 59.000
-87.38500 69.000
-86.18500 39.000
-84.98500 71.000
-83.78500 54.000
-82.58500 58.000
-81.38500 65.000
-80.18500 60.000
-78.98500 73.000
-77.78500 66.000
-76.58500 65.000
-75.38500 52.000
-74.18500 60.000
-72.98500 57.000
-71.78500 52.000
-70.58500 56.000
-69.38500 78.000
-68.18500 77.000
-66.98500 79.000
-65.78500 80.000
-64.58500 71.000
-63.38500 48.000
-62.18500 48.000
-60.98500 58.000
-59.78500 70.000
-58.58500 68.000
-57.38500 53.000
-56.18500 70.000
-54.98500 59.000
-53.78500 64.000
-52.58500 60.000
-51.38500 71.000
-50.18500 61.000
-48.98500 67.000
-47.78500 55.000
-46.58500 83.000
-45.38500 66.000
-44.18500 55.000
-42.98500 63.000
-41.78500 63.000
-40.58500 75.000
-39.38500 52.000
-38.18500 58.000
-36.98500 76.000
-35.78500 65.000
-34.58500 61.000
-33.38500 67.000
-32.18500 63.000
-30.98500 69.000
-29.78500 62.000
-28.58500 71.000
-27.38500 63.000
-26.18500 51.000
-24.98500 61.000
-23.78500 79.000
-22.58500 62.000
-21.38500 66.000
-20.18500 64.000
-18.98500 48.000
-17.78500 67.000
-16.58500 53.000
-15.38500 46.000
-14.18500 58.000
-12.98500 51.000
-11.78500 57.000
-10.58500 59.000
-9.38500 57.000
-8.18500 54.000
-6.98500 53.000
-5.78500 56.000
-4.58500 52.000
-3.38500 59.000
-2.18500 48.000
-0.98500 44.000
0.21500 51.000
1.41500 45.000
2.61500 63.000
3.81500 56.000
5.01500 52.000
6.21500 36.000
7.41500 28.000
8.61500 38.000
9.81500 27.000
11.01500 33.000
12.21500 26.000
13.41500 39.000
14.61500 23.000
15.81500 40.000
17.01500 34.000
18.21500 23.000
19.41500 31.000
20.61500 44.000
21.81500 31.000
23.01500 34.000
24.21500 45.000
25.41500 36.000
26.61500 44.000
27.81500 42.000
29.01500 54.000
30.21500 47.000
31.41500 64.000
32.61500 54.000
33.81500 76.000
35.01500 54.000
36.21500 68.000
37.41500 58.000
38.61500 60.000
39.81500 60.000
41.01500 61.000
42.21500 64.000
43.41500 46.000
44.61500 65.000
45.81500 71.000
47.01500 74.000
48.21500 65.000
49.41500 57.000
50.61500 67.000
51.71500 77.000