Folder: DataAnalysis/data/W6780r/XRD_Omega

Note: data/W6780r/XRD_Omega/W6780r_omega_peaks.TXT
No.	Label	Pos. [記mega]	FWHM Left [記mega]	Area [cts*記mega]	Backgr.[cts]	d-spacing [魔	Height [cts]	Shape Left	Status	Integral Breadth [記mega]	FWHM Right [記mega]	Shape Right	Obs. Lorentz B [記mega]	Obs. Gauss B [記mega]	Instr. Lorentz B [記mega]	Instr. Gauss B [記mega]	Crystallite Size [魔	Micro Strain [%]	Crystallite Size only [魔	Micro Strain only [%]
1	Cr2O3 0 2 4	25,2003(8)	0,939(2)	1013,55	40,50	 	962(2)	0,161(4)	Included	1,053647	 	 	0,193788	0,925096	0,074579	0,063178	758,733400	1,801583	90,449490	1,951983

Note: README.md
# Methods
## RSM analysis

Check out [doc](documentation/RSM.md)

File: w6780r_scan_omega.xy
23.20830 42.0
23.22330 56.0
23.23830 28.0
23.25330 41.0
23.26830 41.0
23.28330 30.0
23.29830 52.0
23.31330 46.0
23.32830 44.0
23.34330 40.0
23.35830 38.0
23.37330 44.0
23.38830 42.0
23.40330 50.0
23.41830 39.0
23.43330 47.0
23.44830 30.0
23.46330 38.0
23.47830 52.0
23.49330 46.0
23.50830 40.0
23.52330 40.0
23.53830 51.0
23.55330 38.0
23.56830 43.0
23.58330 47.0
23.59830 41.0
23.61330 53.0
23.62830 49.0
23.64330 43.0
23.65830 50.0
23.67330 58.0
23.68830 45.0
23.70330 58.0
23.71830 62.0
23.73330 51.0
23.74830 51.0
23.76330 51.0
23.77830 72.0
23.79330 62.0
23.80830 59.0
23.82330 66.0
23.83830 56.0
23.85330 61.0
23.86830 64.0
23.88330 76.0
23.89830 85.0
23.91330 72.0
23.92830 75.0
23.94330 76.0
23.95830 65.0
23.97330 78.0
23.98830 76.0
24.00330 96.0
24.01830 95.0
24.03330 111.0
24.04830 108.0
24.06330 103.0
24.07830 108.0
24.09330 126.0
24.10830 108.0
24.12330 128.0
24.13830 129.0
24.15330 122.0
24.16830 144.0
24.18330 132.0
24.19830 130.0
24.21330 146.0
24.22830 148.0
24.24330 178.0
24.25830 158.0
24.27330 185.0
24.28830 169.0
24.30330 177.0
24.31830 187.0
24.33330 199.0
24.34830 223.0
24.36330 195.0
24.37830 212.0
24.39330 253.0
24.40830 238.0
24.42330 245.0
24.43830 272.0
24.45330 268.0
24.46830 284.0
24.48330 332.0
24.49830 330.0
24.51330 352.0
24.52830 354.0
24.54330 385.0
24.55830 387.0
24.57330 451.0
24.58830 446.0
24.60330 489.0
24.61830 509.0
24.63330 501.0
24.64830 547.0
24.66330 557.0
24.67830 607.0
24.69330 612.0
24.70830 668.0
24.72330 650.0
24.73830 693.0
24.75330 710.0
24.76830 809.0
24.78330 826.0
24.79830 812.0
24.81330 915.0
24.82830 894.0
24.84330 906.0
24.85830 1004.0
24.87330 997.0
24.88830 1069.0
24.90330 1032.0
24.91830 1059.0
24.93330 1113.0
24.94830 1153.0
24.96330 1165.0
24.97830 1276.0
24.99330 1329.0
25.00830 1307.0
25.02330 1362.0
25.03830 1361.0
25.05330 1374.0
25.06830 1394.0
25.08330 1375.0
25.09830 1438.0
25.11330 1525.0
25.12830 1523.0
25.14330 1527.0
25.15830 1538.0
25.17330 1527.0
25.18830 1517.0
25.20330 1487.0
25.21830 1485.0
25.23330 1563.0
25.24830 1484.0
25.26330 1481.0
25.27830 1540.0
25.29330 1466.0
25.30830 1568.0
25.32330 1529.0
25.33830 1497.0
25.35330 1462.0
25.36830 1484.0
25.38330 1411.0
25.39830 1385.0
25.41330 1380.0
25.42830 1309.0
25.44330 1266.0
25.45830 1269.0
25.47330 1165.0
25.48830 1188.0
25.50330 1136.0
25.51830 1025.0
25.53330 1094.0
25.54830 1020.0
25.56330 981.0
25.57830 955.0
25.59330 947.0
25.60830 914.0
25.62330 850.0
25.63830 834.0
25.65330 811.0
25.66830 746.0
25.68330 695.0
25.69830 731.0
25.71330 681.0
25.72830 669.0
25.74330 640.0
25.75830 595.0
25.77330 551.0
25.78830 533.0
25.80330 516.0
25.81830 485.0
25.83330 465.0
25.84830 468.0
25.86330 409.0
25.87830 386.0
25.89330 393.0
25.90830 399.0
25.92330 335.0
25.93830 356.0
25.95330 334.0
25.96830 310.0
25.98330 301.0
25.99830 263.0
26.01330 255.0
26.02830 270.0
26.04330 270.0
26.05830 238.0
26.07330 223.0
26.08830 206.0
26.10330 207.0
26.11830 206.0
26.13330 190.0
26.14830 190.0
26.16330 187.0
26.17830 161.0
26.19330 152.0
26.20830 154.0
26.22330 157.0
26.23830 137.0
26.25330 141.0
26.26830 109.0
26.28330 141.0
26.29830 135.0
26.31330 97.0
26.32830 101.0
26.34330 108.0
26.35830 102.0
26.37330 109.0
26.38830 92.0
26.40330 86.0
26.41830 93.0
26.43330 85.0
26.44830 88.0
26.46330 88.0
26.47830 96.0
26.49330 83.0
26.50830 77.0
26.52330 75.0
26.53830 71.0
26.55330 67.0
26.56830 77.0
26.58330 65.0
26.59830 62.0
26.61330 63.0
26.62830 70.0
26.64330 63.0
26.65830 42.0
26.67330 57.0
26.68830 61.0
26.70330 71.0
26.71830 47.0
26.73330 49.0
26.74830 59.0
26.76330 45.0
26.77830 44.0
26.79330 40.0
26.80830 48.0
26.82330 43.0
26.83830 41.0
26.85330 42.0
26.86830 45.0
26.88330 43.0
26.89830 43.0
26.91330 51.0
26.92830 45.0
26.94330 40.0
26.95830 37.0
26.97330 40.0
26.98830 50.0
27.00330 43.0
27.01830 28.0
27.03330 36.0
27.04830 42.0
27.06330 44.0
27.07830 32.0
27.09330 44.0
27.10830 26.0
27.12330 40.0
27.13830 34.0
27.15330 40.0
27.16830 33.0
27.18330 40.0
27.19830 39.0