Folder: DataAnalysis/data/W6858c/XRD_Omega

Note: data/W6858c/XRD_Omega/W6858_omega_peaks.TXT
No.	Label	Pos. [記mega]	FWHM Left [記mega]	Area [cts*記mega]	Backgr.[cts]	d-spacing [魔	Height [cts]	Shape Left	Status	Integral Breadth [記mega]	FWHM Right [記mega]	Shape Right	Obs. Lorentz B [記mega]	Obs. Gauss B [記mega]	Instr. Lorentz B [記mega]	Instr. Gauss B [記mega]	Crystallite Size [魔	Micro Strain [%]	Crystallite Size only [魔	Micro Strain only [%]
1	Cr2O3 0 0 6	19,4018(3)	0,1674(9)	419,83	27,07	 	1999(10)	0,47(1)	Included	0,209967	 	 	0,106873	0,134870	0,075246	0,063742	2831,431000	0,303369	640,738900	0,356727

Note: README.md
# Methods
## RSM analysis

Check out [doc](documentation/RSM.md)

File: w6858c_scan_omega_4deg_step_0.005deg0_C6.xy
17.43590 31.0
17.45090 44.0
17.46590 25.0
17.48090 36.0
17.49590 37.0
17.51090 41.0
17.52590 32.0
17.54090 40.0
17.55590 39.0
17.57090 29.0
17.58590 26.0
17.60090 23.0
17.61590 39.0
17.63090 39.0
17.64590 37.0
17.66090 26.0
17.67590 29.0
17.69090 36.0
17.70590 29.0
17.72090 38.0
17.73590 44.0
17.75090 42.0
17.76590 28.0
17.78090 60.0
17.79590 47.0
17.81090 41.0
17.82590 42.0
17.84090 28.0
17.85590 37.0
17.87090 36.0
17.88590 24.0
17.90090 38.0
17.91590 30.0
17.93090 38.0
17.94590 38.0
17.96090 34.0
17.97590 36.0
17.99090 34.0
18.00590 29.0
18.02090 29.0
18.03590 44.0
18.05090 29.0
18.06590 47.0
18.08090 20.0
18.09590 35.0
18.11090 39.0
18.12590 40.0
18.14090 25.0
18.15590 37.0
18.17090 36.0
18.18590 47.0
18.20090 45.0
18.21590 28.0
18.23090 47.0
18.24590 52.0
18.26090 31.0
18.27590 47.0
18.29090 27.0
18.30590 39.0
18.32090 35.0
18.33590 37.0
18.35090 37.0
18.36590 48.0
18.38090 47.0
18.39590 36.0
18.41090 46.0
18.42590 46.0
18.44090 32.0
18.45590 29.0
18.47090 50.0
18.48590 44.0
18.50090 63.0
18.51590 40.0
18.53090 45.0
18.54590 37.0
18.56090 55.0
18.57590 44.0
18.59090 43.0
18.60590 46.0
18.62090 40.0
18.63590 46.0
18.65090 46.0
18.66590 42.0
18.68090 45.0
18.69590 38.0
18.71090 52.0
18.72590 37.0
18.74090 49.0
18.75590 46.0
18.77090 57.0
18.78590 41.0
18.80090 51.0
18.81590 62.0
18.83090 54.0
18.84590 71.0
18.86090 53.0
18.87590 52.0
18.89090 52.0
18.90590 46.0
18.92090 54.0
18.93590 51.0
18.95090 63.0
18.96590 56.0
18.98090 64.0
18.99590 88.0
19.01090 86.0
19.02590 72.0
19.04090 86.0
19.05590 62.0
19.07090 94.0
19.08590 90.0
19.10090 94.0
19.11590 127.0
19.13090 126.0
19.14590 153.0
19.16090 164.0
19.17590 162.0
19.19090 187.0
19.20590 235.0
19.22090 250.0
19.23590 286.0
19.25090 365.0
19.26590 459.0
19.28090 712.0
19.29590 1038.0
19.31090 1248.0
19.32590 1378.0
19.34090 1663.0
19.35590 1980.0
19.37090 2279.0
19.38590 2547.0
19.40090 2760.0
19.41590 2797.0
19.43090 2797.0
19.44590 2647.0
19.46090 2532.0
19.47590 2192.0
19.49090 1787.0
19.50590 1444.0
19.52090 1159.0
19.53590 897.0
19.55090 723.0
19.56590 519.0
19.58090 385.0
19.59590 357.0
19.61090 265.0
19.62590 247.0
19.64090 208.0
19.65590 192.0
19.67090 145.0
19.68590 159.0
19.70090 114.0
19.71590 110.0
19.73090 106.0
19.74590 94.0
19.76090 86.0
19.77590 84.0
19.79090 75.0
19.80590 71.0
19.82090 70.0
19.83590 57.0
19.85090 55.0
19.86590 56.0
19.88090 71.0
19.89590 62.0
19.91090 57.0
19.92590 56.0
19.94090 43.0
19.95590 54.0
19.97090 54.0
19.98590 52.0
20.00090 39.0
20.01590 51.0
20.03090 45.0
20.04590 56.0
20.06090 41.0
20.07590 52.0
20.09090 38.0
20.10590 47.0
20.12090 38.0
20.13590 52.0
20.15090 37.0
20.16590 40.0
20.18090 40.0
20.19590 36.0
20.21090 41.0
20.22590 42.0
20.24090 42.0
20.25590 45.0
20.27090 39.0
20.28590 32.0
20.30090 41.0
20.31590 33.0
20.33090 43.0
20.34590 49.0
20.36090 43.0
20.37590 40.0
20.39090 37.0
20.40590 25.0
20.42090 42.0
20.43590 39.0
20.45090 38.0
20.46590 40.0
20.48090 32.0
20.49590 39.0
20.51090 35.0
20.52590 33.0
20.54090 22.0
20.55590 36.0
20.57090 31.0
20.58590 37.0
20.60090 27.0
20.61590 27.0
20.63090 38.0
20.64590 42.0
20.66090 47.0
20.67590 36.0
20.69090 38.0
20.70590 36.0
20.72090 37.0
20.73590 29.0
20.75090 42.0
20.76590 40.0
20.78090 49.0
20.79590 31.0
20.81090 22.0
20.82590 38.0
20.84090 21.0
20.85590 33.0
20.87090 34.0
20.88590 22.0
20.90090 28.0
20.91590 42.0
20.93090 34.0
20.94590 30.0
20.96090 35.0
20.97590 28.0
20.99090 38.0
21.00590 27.0
21.02090 34.0
21.03590 44.0
21.05090 25.0
21.06590 37.0
21.08090 35.0
21.09590 23.0
21.11090 30.0
21.12590 33.0
21.14090 35.0
21.15590 28.0
21.17090 32.0
21.18590 32.0
21.20090 24.0
21.21590 37.0
21.23090 35.0
21.24590 31.0
21.26090 28.0
21.27590 37.0
21.29090 30.0
21.30590 35.0
21.32090 32.0
21.33590 18.0
21.35090 43.0
21.36590 31.0
21.38090 28.0
21.39590 30.0