Folder: DataAnalysis/data/W6818/XRD_Omega

Note: data/W6818/XRD_Omega/W6818_omega_peaks.TXT
No.	Pos. [記mega]	FWHM Left [記mega]	Area [cts*記mega]	Backgr.[cts]	d-spacing [魔	Height [cts]	Shape Left	Status	Integral Breadth [記mega]	FWHM Right [記mega]	Shape Right	Obs. Lorentz B [記mega]	Obs. Gauss B [記mega]	Instr. Lorentz B [記mega]	Instr. Gauss B [記mega]	Crystallite Size [魔	Micro Strain [%]	Crystallite Size only [魔	Micro Strain only [%]
1	19,70887(9)	0,0782(3)	790,05	188,84	 	6429(36)	1,000(6)	Included	0,122894	 	 	0,122317	0,002075	0,075205	0,063708	1901,685000	-0,159940	1893,192000	0,118869

Note: README.md
# Methods
## RSM analysis

Check out [doc](documentation/RSM.md)

File: W6818_Cr2O3_scan_omega_2deg_step_0.002deg0_1.xy
18.72670 160.0
18.73470 176.0
18.74270 156.0
18.75070 180.0
18.75870 158.0
18.76670 157.0
18.77470 189.0
18.78270 157.0
18.79070 186.0
18.79870 166.0
18.80670 180.0
18.81470 175.0
18.82270 154.0
18.83070 177.0
18.83870 160.0
18.84670 194.0
18.85470 152.0
18.86270 185.0
18.87070 201.0
18.87870 152.0
18.88670 159.0
18.89470 170.0
18.90270 191.0
18.91070 186.0
18.91870 151.0
18.92670 184.0
18.93470 135.0
18.94270 166.0
18.95070 194.0
18.95870 156.0
18.96670 161.0
18.97470 169.0
18.98270 178.0
18.99070 207.0
18.99870 170.0
19.00670 154.0
19.01470 185.0
19.02270 202.0
19.03070 178.0
19.03870 196.0
19.04670 185.0
19.05470 164.0
19.06270 184.0
19.07070 187.0
19.07870 231.0
19.08670 191.0
19.09470 202.0
19.10270 214.0
19.11070 219.0
19.11870 198.0
19.12670 213.0
19.13470 204.0
19.14270 230.0
19.15070 205.0
19.15870 216.0
19.16670 227.0
19.17470 245.0
19.18270 223.0
19.19070 204.0
19.19870 239.0
19.20670 226.0
19.21470 212.0
19.22270 236.0
19.23070 230.0
19.23870 238.0
19.24670 222.0
19.25470 224.0
19.26270 238.0
19.27070 233.0
19.27870 238.0
19.28670 208.0
19.29470 232.0
19.30270 248.0
19.31070 244.0
19.31870 265.0
19.32670 280.0
19.33470 237.0
19.34270 282.0
19.35070 283.0
19.35870 279.0
19.36670 284.0
19.37470 299.0
19.38270 313.0
19.39070 326.0
19.39870 306.0
19.40670 318.0
19.41470 346.0
19.42270 343.0
19.43070 340.0
19.43870 376.0
19.44670 379.0
19.45470 363.0
19.46270 380.0
19.47070 411.0
19.47870 464.0
19.48670 437.0
19.49470 445.0
19.50270 479.0
19.51070 506.0
19.51870 556.0
19.52670 553.0
19.53470 569.0
19.54270 606.0
19.55070 684.0
19.55870 772.0
19.56670 780.0
19.57470 827.0
19.58270 858.0
19.59070 1007.0
19.59870 1199.0
19.60670 1273.0
19.61470 1381.0
19.62270 1554.0
19.63070 1827.0
19.63870 2163.0
19.64670 2441.0
19.65470 2704.0
19.66270 3078.0
19.67070 3534.0
19.67870 4682.0
19.68670 5850.0
19.69470 7058.0
19.70270 7592.0
19.71070 8003.0
19.71870 7856.0
19.72670 7269.0
19.73470 6910.0
19.74270 6805.0
19.75070 6369.0
19.75870 5930.0
19.76670 5493.0
19.77470 4686.0
19.78270 3963.0
19.79070 3274.0
19.79870 2791.0
19.80670 2207.0
19.81470 1981.0
19.82270 1592.0
19.83070 1421.0
19.83870 1219.0
19.84670 1153.0
19.85470 1086.0
19.86270 1020.0
19.87070 1155.0
19.87870 969.0
19.88670 902.0
19.89470 808.0
19.90270 728.0
19.91070 655.0
19.91870 619.0
19.92670 561.0
19.93470 590.0
19.94270 576.0
19.95070 553.0
19.95870 478.0
19.96670 436.0
19.97470 441.0
19.98270 441.0
19.99070 459.0
19.99870 381.0
20.00670 472.0
20.01470 477.0
20.02270 442.0
20.03070 405.0
20.03870 370.0
20.04670 361.0
20.05470 376.0
20.06270 324.0
20.07070 331.0
20.07870 330.0
20.08670 300.0
20.09470 306.0
20.10270 273.0
20.11070 271.0
20.11870 293.0
20.12670 284.0
20.13470 273.0
20.14270 313.0
20.15070 233.0
20.15870 283.0
20.16670 280.0
20.17470 260.0
20.18270 257.0
20.19070 274.0
20.19870 271.0
20.20670 219.0
20.21470 215.0
20.22270 223.0
20.23070 259.0
20.23870 219.0
20.24670 217.0
20.25470 252.0
20.26270 244.0
20.27070 229.0
20.27870 238.0
20.28670 199.0
20.29470 237.0
20.30270 217.0
20.31070 238.0
20.31870 196.0
20.32670 188.0
20.33470 197.0
20.34270 205.0
20.35070 173.0
20.35870 169.0
20.36670 185.0
20.37470 197.0
20.38270 163.0
20.39070 173.0
20.39870 181.0
20.40670 158.0
20.41470 180.0
20.42270 172.0
20.43070 182.0
20.43870 158.0
20.44670 159.0
20.45470 160.0
20.46270 142.0
20.47070 154.0
20.47870 177.0
20.48670 157.0
20.49470 193.0
20.50270 176.0
20.51070 191.0
20.51870 167.0
20.52670 166.0
20.53470 173.0
20.54270 158.0
20.55070 180.0
20.55870 139.0
20.56670 152.0
20.57470 163.0
20.58270 155.0
20.59070 149.0
20.59870 148.0
20.60670 138.0
20.61470 152.0
20.62270 163.0
20.63070 189.0
20.63870 153.0
20.64670 153.0
20.65470 160.0
20.66270 148.0
20.67070 158.0
20.67870 170.0
20.68670 140.0
20.69470 187.0
20.70270 154.0
20.71070 156.0