Folder: DataAnalysis/data/W6818/XRD_2ThetaOmega

Note: data/W6818/XRD_2ThetaOmega/W6818_peaks.TXT
No.	Label	Pos. [°2Th.]	FWHM Left [°2Th.]	Area [cts*°2Th.]	Backgr.[cts]	d-spacing [Å]	Height [cts]	Shape Left	Status	Integral Breadth [°2Th.]	FWHM Right [°2Th.]	Shape Right	Obs. Lorentz B [°2Th.]	Obs. Gauss B [°2Th.]	Instr. Lorentz B [°2Th.]	Instr. Gauss B [°2Th.]	Crystallite Size [Å]	Micro Strain [%]	Crystallite Size only [Å]	Micro Strain only [%]
1	Cr2O3 0 0 6	39,4638(6)	0,129(2)	99,81	8,35	2,28156	550(8)	0,76(2)	Included	0,181511	 	 	0,142772	0,073004	0,073935	0,062636	1362,293000	0,045621	1035,452000	0,110172
2	Al2O3 0 0 6	41,60532(8)	0,0517(2)	370,79	13,07	2,16894	6192(26)	0,250(5)	Included	0,059882	 	 	0,016834	0,048490	0,073977	0,062671	-1652,437000	-0,045599	29856,600000	0,003632
3	Cr2O3 0 0 12	85,095(3)	0,32(1)	37,20	10,68	1,13915	82(2)	0,80(4)	Included	0,453060	 	 	0,373074	0,164382	0,086835	0,073561	418,585200	0,069883	324,824600	0,175349
4	Al2O3 0 0 12	90,66984(9)	0,0709(3)	682,55	11,39	1,08305	7358(26)	0,578(5)	Included	0,092768	 	 	0,057148	0,051689	0,090987	0,077076	-3710,831000	-0,024657	39703,780000	0,001364

Note: README.md
# Methods
## RSM analysis

Check out [doc](documentation/RSM.md)

File: W6818_absolute_2th-om_10-130deg_PIXscan_17min_1.xy
10.0035 16.0
10.4072 12.0
10.811 19.0
11.2147 22.0
11.6185 12.0
12.0222 12.0
12.426 19.0
12.8298 14.0
13.2335 10.0
13.6373 16.0
14.041 13.0
14.4448 14.0
14.8485 9.0
15.2523 12.0
15.656 6.0
16.0598 19.0
16.4636 6.0
16.8673 10.0
17.2711 7.0
17.6748 13.0
18.0786 15.0
18.4823 17.0
18.8861 7.0
19.2899 14.0
19.6936 13.0
20.0974 13.0
20.5011 11.0
20.9049 7.0
21.3086 12.0
21.7124 9.0
22.1161 4.0
22.5199 5.0
22.9237 15.0
23.3274 8.0
23.7312 7.0
24.1349 9.0
24.5387 12.0
24.9424 6.0
25.3462 12.0
25.75 11.0
26.1537 12.0
26.5575 7.0
26.9612 4.0
27.365 7.0
27.7687 8.0
28.1725 8.0
28.5762 6.0
28.98 8.0
29.3838 9.0
29.7875 9.0
30.1913 7.0
30.595 8.0
30.9988 10.0
31.4025 5.0
31.8063 6.0
32.2101 5.0
32.6138 9.0
33.0176 13.0
33.4213 9.0
33.8251 9.0
34.2288 7.0
34.6326 10.0
35.0363 7.0
35.4401 5.0
35.8439 6.0
36.2476 6.0
36.6514 12.0
37.0551 7.0
37.4589 12.0
37.8626 12.0
38.2664 10.0
38.6702 8.0
39.0739 29.0
39.4777 641.0
39.8814 21.0
40.2852 12.0
40.6889 11.0
41.0927 12.0
41.4964 78.0
41.9002 47.0
42.304 20.0
42.7077 18.0
43.1115 14.0
43.5152 11.0
43.919 15.0
44.3227 11.0
44.7265 12.0
45.1303 12.0
45.534 7.0
45.9378 13.0
46.3415 10.0
46.7453 11.0
47.149 11.0
47.5528 1.0
47.9565 9.0
48.3603 9.0
48.7641 9.0
49.1678 8.0
49.5716 7.0
49.9753 7.0
50.3791 5.0
50.7828 13.0
51.1866 6.0
51.5903 6.0
51.9941 9.0
52.3979 11.0
52.8016 13.0
53.2054 16.0
53.6091 14.0
54.0129 5.0
54.4166 12.0
54.8204 4.0
55.2242 14.0
55.6279 8.0
56.0317 6.0
56.4354 4.0
56.8392 8.0
57.2429 4.0
57.6467 7.0
58.0504 11.0
58.4542 9.0
58.858 7.0
59.2617 10.0
59.6655 14.0
60.0692 11.0
60.473 9.0
60.8767 8.0
61.2805 7.0
61.6843 15.0
62.088 5.0
62.4918 9.0
62.8955 7.0
63.2993 10.0
63.703 18.0
64.1068 14.0
64.5105 8.0
64.9143 10.0
65.3181 9.0
65.7218 5.0
66.1256 12.0
66.5293 5.0
66.9331 5.0
67.3368 7.0
67.7406 10.0
68.1444 13.0
68.5481 6.0
68.9519 7.0
69.3556 11.0
69.7594 10.0
70.1631 8.0
70.5669 9.0
70.9706 11.0
71.3744 5.0
71.7782 12.0
72.1819 4.0
72.5857 2.0
72.9894 11.0
73.3932 8.0
73.7969 5.0
74.2007 11.0
74.6045 11.0
75.0082 6.0
75.412 10.0
75.8157 13.0
76.2195 8.0
76.6232 8.0
77.027 10.0
77.4307 3.0
77.8345 9.0
78.2383 8.0
78.642 8.0
79.0458 13.0
79.4495 7.0
79.8533 17.0
80.257 7.0
80.6608 15.0
81.0646 12.0
81.4683 12.0
81.8721 9.0
82.2758 18.0
82.6796 7.0
83.0833 15.0
83.4871 7.0
83.8908 10.0
84.2946 12.0
84.6984 19.0
85.1021 106.0
85.5059 41.0
85.9096 37.0
86.3134 18.0
86.7171 18.0
87.1209 14.0
87.5247 8.0
87.9284 20.0
88.3322 14.0
88.7359 8.0
89.1397 12.0
89.5434 14.0
89.9472 24.0
90.3509 49.0
90.7547 698.0
91.1585 82.0
91.5622 37.0
91.966 19.0
92.3697 23.0
92.7735 19.0
93.1772 18.0
93.581 12.0
93.9848 17.0
94.3885 4.0
94.7923 10.0
95.196 11.0
95.5998 12.0
96.0035 15.0
96.4073 8.0
96.811 5.0
97.2148 11.0
97.6186 9.0
98.0223 10.0
98.4261 6.0
98.8298 9.0
99.2336 7.0
99.6373 9.0
100.041 12.0
100.445 5.0
100.849 8.0
101.252 8.0
101.656 11.0
102.06 10.0
102.464 13.0
102.867 6.0
103.271 12.0
103.675 8.0
104.079 10.0
104.482 12.0
104.886 7.0
105.29 7.0
105.694 8.0
106.097 10.0
106.501 16.0
106.905 5.0
107.309 8.0
107.712 12.0
108.116 10.0
108.52 10.0
108.924 8.0
109.327 16.0
109.731 10.0
110.135 12.0
110.539 9.0
110.943 11.0
111.346 8.0
111.75 11.0
112.154 5.0
112.558 11.0
112.961 9.0
113.365 7.0
113.769 9.0
114.173 13.0
114.576 15.0
114.98 8.0
115.384 12.0
115.788 10.0
116.191 12.0
116.595 11.0
116.999 13.0
117.403 6.0
117.806 9.0
118.21 12.0
118.614 11.0
119.018 13.0
119.421 7.0
119.825 8.0
120.229 18.0
120.633 12.0
121.036 11.0
121.44 14.0
121.844 25.0
122.248 6.0
122.651 7.0
123.055 9.0
123.459 11.0
123.863 10.0
124.266 4.0
124.67 11.0
125.074 16.0
125.478 19.0
125.881 11.0
126.285 17.0
126.689 8.0
127.093 12.0
127.497 9.0
127.9 9.0
128.304 9.0
128.708 12.0
129.112 9.0
129.515 12.0
129.919 11.0
129.998 13.0