Folder: DataAnalysis/data/W6904a/XRD_2ThetaOmega

Note: data/W6904a/XRD_2ThetaOmega/W6904a_peaks.TXT
No.	Label	Pos. [°2Th.]	FWHM Left [°2Th.]	Area [cts*°2Th.]	Backgr.[cts]	d-spacing [Å]	Height [cts]	Shape Left	Status	Integral Breadth [°2Th.]	FWHM Right [°2Th.]	Shape Right	Obs. Lorentz B [°2Th.]	Obs. Gauss B [°2Th.]	Instr. Lorentz B [°2Th.]	Instr. Gauss B [°2Th.]	Crystallite Size [Å]	Micro Strain [%]	Crystallite Size only [Å]	Micro Strain only [%]
1	Cr2O3 1 1 0	35,9425(3)	0,2683(8)	892,50	271,73	2,49660	2972(9)	0,152(8)	Included	0,300314	 	 	0,052246	0,265752	0,073951	0,062648	-4275,366000	0,347411	359,273800	0,347450
2	Al2O3 1 1 0	37,67269(1)	0,04720(3)	19569,30	298,84	2,38582	345527(206)	0,3504(8)	Included	0,056636	 	 	0,021939	0,041535	0,073931	0,062631	-1793,826000	-0,059959	29489,550000	0,004045

Note: README.md
# Methods
## RSM analysis

Check out [doc](documentation/RSM.md)

File: scan_2th-om_a_Cr2O3_30-40deg_PIXscan_4min_5.xy
30.0025 115.0
30.0369 114.0
30.0714 111.0
30.1059 101.0
30.1403 114.0
30.1748 123.0
30.2093 115.0
30.2437 107.0
30.2782 99.0
30.3127 117.0
30.3471 135.0
30.3816 122.0
30.4161 124.0
30.4505 105.0
30.485 138.0
30.5195 115.0
30.5539 116.0
30.5884 137.0
30.6229 128.0
30.6573 131.0
30.6918 124.0
30.7263 120.0
30.7607 104.0
30.7952 117.0
30.8297 119.0
30.8641 115.0
30.8986 109.0
30.9331 125.0
30.9675 123.0
31.002 108.0
31.0365 116.0
31.0709 108.0
31.1054 117.0
31.1399 101.0
31.1743 141.0
31.2088 130.0
31.2433 124.0
31.2777 125.0
31.3122 122.0
31.3467 105.0
31.3811 136.0
31.4156 114.0
31.4501 123.0
31.4845 121.0
31.519 131.0
31.5535 120.0
31.5879 125.0
31.6224 140.0
31.6569 111.0
31.6913 127.0
31.7258 121.0
31.7603 108.0
31.7947 113.0
31.8292 109.0
31.8637 133.0
31.8981 108.0
31.9326 117.0
31.9671 108.0
32.0015 105.0
32.036 120.0
32.0705 127.0
32.1049 118.0
32.1394 106.0
32.1739 121.0
32.2083 116.0
32.2428 135.0
32.2773 137.0
32.3118 134.0
32.3462 123.0
32.3807 125.0
32.4152 122.0
32.4496 143.0
32.4841 128.0
32.5186 113.0
32.553 126.0
32.5875 125.0
32.622 110.0
32.6564 121.0
32.6909 125.0
32.7254 125.0
32.7598 122.0
32.7943 137.0
32.8288 119.0
32.8632 120.0
32.8977 132.0
32.9322 126.0
32.9666 121.0
33.0011 100.0
33.0356 104.0
33.07 138.0
33.1045 119.0
33.139 114.0
33.1734 147.0
33.2079 117.0
33.2424 117.0
33.2768 133.0
33.3113 119.0
33.3458 112.0
33.3802 118.0
33.4147 121.0
33.4492 133.0
33.4836 132.0
33.5181 117.0
33.5526 127.0
33.587 140.0
33.6215 122.0
33.656 149.0
33.6904 142.0
33.7249 127.0
33.7594 125.0
33.7938 151.0
33.8283 153.0
33.8628 287.0
33.8972 1135.0
33.9317 1231.0
33.9662 359.0
34.0006 197.0
34.0351 158.0
34.0696 164.0
34.104 129.0
34.1385 163.0
34.173 144.0
34.2074 140.0
34.2419 142.0
34.2764 132.0
34.3108 144.0
34.3453 149.0
34.3798 137.0
34.4142 168.0
34.4487 129.0
34.4832 158.0
34.5176 144.0
34.5521 161.0
34.5866 131.0
34.621 140.0
34.6555 147.0
34.69 144.0
34.7244 147.0
34.7589 146.0
34.7934 141.0
34.8278 148.0
34.8623 171.0
34.8968 172.0
34.9312 174.0
34.9657 188.0
35.0002 184.0
35.0346 151.0
35.0691 156.0
35.1036 149.0
35.138 196.0
35.1725 183.0
35.207 165.0
35.2414 184.0
35.2759 213.0
35.3104 211.0
35.3448 216.0
35.3793 196.0
35.4138 269.0
35.4482 229.0
35.4827 292.0
35.5172 347.0
35.5516 396.0
35.5861 378.0
35.6206 422.0
35.655 481.0
35.6895 568.0
35.724 817.0
35.7584 1218.0
35.7929 1744.0
35.8274 2358.0
35.8619 3181.0
35.8963 3798.0
35.9308 4260.0
35.9653 4377.0
35.9997 4340.0
36.0342 3904.0
36.0687 3378.0
36.1031 2611.0
36.1376 1937.0
36.1721 1403.0
36.2065 976.0
36.241 688.0
36.2755 553.0
36.3099 437.0
36.3444 498.0
36.3789 427.0
36.4133 363.0
36.4478 369.0
36.4823 360.0
36.5167 337.0
36.5512 304.0
36.5857 351.0
36.6201 346.0
36.6546 334.0
36.6891 319.0
36.7235 329.0
36.758 370.0
36.7925 355.0
36.8269 371.0
36.8614 392.0
36.8959 412.0
36.9303 433.0
36.9648 453.0
36.9993 472.0
37.0337 490.0
37.0682 483.0
37.1027 531.0
37.1371 565.0
37.1716 588.0
37.2061 592.0
37.2405 707.0
37.275 791.0
37.3095 868.0
37.3439 990.0
37.3784 1124.0
37.4129 1306.0
37.4473 1759.0
37.4818 3273.0
37.5163 4480.0
37.5507 4491.0
37.5852 7029.0
37.6197 19854.0
37.6541 255900.0
37.6886 287994.0
37.7231 39252.0
37.7575 148404.0
37.792 106897.0
37.8265 12169.0
37.8609 4946.0
37.8954 3099.0
37.9299 2367.0
37.9643 1847.0
37.9988 1549.0
38.0333 1256.0
38.0677 1259.0
38.1022 1009.0
38.1367 923.0
38.1711 869.0
38.2056 781.0
38.2401 723.0
38.2745 603.0
38.309 534.0
38.3435 525.0
38.3779 491.0
38.4124 455.0
38.4469 425.0
38.4813 396.0
38.5158 389.0
38.5503 289.0
38.5847 309.0
38.6192 288.0
38.6537 223.0
38.6881 274.0
38.7226 213.0
38.7571 185.0
38.7915 179.0
38.826 163.0
38.8605 166.0
38.8949 163.0
38.9294 160.0
38.9639 186.0
38.9983 156.0
39.0328 166.0
39.0673 159.0
39.1017 123.0
39.1362 164.0
39.1707 140.0
39.2051 148.0
39.2396 153.0
39.2741 130.0
39.3085 145.0
39.343 157.0
39.3775 136.0
39.412 139.0
39.4464 164.0
39.4809 147.0
39.5154 132.0
39.5498 162.0
39.5843 134.0
39.6188 145.0
39.6532 144.0
39.6877 153.0
39.7222 120.0
39.7566 122.0
39.7911 137.0
39.8256 131.0
39.86 156.0
39.8945 141.0
39.929 121.0
39.9634 142.0
39.9979 150.0