Folder: DataAnalysis/data/W6904a/XRD_Omega

Note: data/W6904a/XRD_Omega/W6904a_omega_peaks.TXT
No.	Label	Pos. [記mega]	FWHM Left [記mega]	Area [cts*記mega]	Backgr.[cts]	d-spacing [魔	Height [cts]	Shape Left	Status	Integral Breadth [記mega]	FWHM Right [記mega]	Shape Right	Obs. Lorentz B [記mega]	Obs. Gauss B [記mega]	Instr. Lorentz B [記mega]	Instr. Gauss B [記mega]	Crystallite Size [魔	Micro Strain [%]	Crystallite Size only [魔	Micro Strain only [%]
1	Cr2O3 1 1 0	18,0659(3)	0,253(1)	1341,07	74,51	 	3369(13)	1,000(6)	Included	0,398075	 	 	0,396207	0,006723	0,075430	0,063897	278,630000	-0,174405	278,602900	0,880517

Note: README.md
# Methods
## RSM analysis

Check out [doc](documentation/RSM.md)

File: scan_omega_4deg_step_0.005deg0_C5_1.xy
16.10120 76.0
16.11620 74.0
16.13120 85.0
16.14620 73.0
16.16120 105.0
16.17620 82.0
16.19120 91.0
16.20620 88.0
16.22120 76.0
16.23620 91.0
16.25120 88.0
16.26620 101.0
16.28120 84.0
16.29620 92.0
16.31120 97.0
16.32620 86.0
16.34120 82.0
16.35620 88.0
16.37120 109.0
16.38620 105.0
16.40120 94.0
16.41620 71.0
16.43120 84.0
16.44620 94.0
16.46120 89.0
16.47620 85.0
16.49120 80.0
16.50620 88.0
16.52120 100.0
16.53620 106.0
16.55120 100.0
16.56620 87.0
16.58120 103.0
16.59620 105.0
16.61120 100.0
16.62620 112.0
16.64120 109.0
16.65620 123.0
16.67120 103.0
16.68620 98.0
16.70120 98.0
16.71620 99.0
16.73120 113.0
16.74620 117.0
16.76120 115.0
16.77620 106.0
16.79120 125.0
16.80620 130.0
16.82120 121.0
16.83620 118.0
16.85120 130.0
16.86620 157.0
16.88120 127.0
16.89620 126.0
16.91120 160.0
16.92620 133.0
16.94120 146.0
16.95620 154.0
16.97120 168.0
16.98620 145.0
17.00120 152.0
17.01620 163.0
17.03120 181.0
17.04620 175.0
17.06120 159.0
17.07620 180.0
17.09120 198.0
17.10620 174.0
17.12120 190.0
17.13620 215.0
17.15120 213.0
17.16620 228.0
17.18120 222.0
17.19620 219.0
17.21120 249.0
17.22620 226.0
17.24120 266.0
17.25620 279.0
17.27120 237.0
17.28620 276.0
17.30120 304.0
17.31620 292.0
17.33120 319.0
17.34620 344.0
17.36120 350.0
17.37620 371.0
17.39120 383.0
17.40620 392.0
17.42120 398.0
17.43620 432.0
17.45120 425.0
17.46620 443.0
17.48120 471.0
17.49620 463.0
17.51120 458.0
17.52620 545.0
17.54120 562.0
17.55620 565.0
17.57120 600.0
17.58620 657.0
17.60120 661.0
17.61620 651.0
17.63120 737.0
17.64620 746.0
17.66120 763.0
17.67620 840.0
17.69120 834.0
17.70620 839.0
17.72120 945.0
17.73620 991.0
17.75120 969.0
17.76620 1053.0
17.78120 1101.0
17.79620 1099.0
17.81120 1186.0
17.82620 1239.0
17.84120 1324.0
17.85620 1370.0
17.87120 1411.0
17.88620 1518.0
17.90120 1525.0
17.91620 1594.0
17.93120 1671.0
17.94620 1916.0
17.96120 2257.0
17.97620 2580.0
17.99120 3031.0
18.00620 3621.0
18.02120 4282.0
18.03620 4874.0
18.05120 5311.0
18.06620 5783.0
18.08120 5838.0
18.09620 5708.0
18.11120 5409.0
18.12620 4949.0
18.14120 4162.0
18.15620 3497.0
18.17120 3052.0
18.18620 2679.0
18.20120 2256.0
18.21620 2022.0
18.23120 1738.0
18.24620 1608.0
18.26120 1531.0
18.27620 1483.0
18.29120 1425.0
18.30620 1328.0
18.32120 1303.0
18.33620 1199.0
18.35120 1182.0
18.36620 1165.0
18.38120 1125.0
18.39620 1062.0
18.41120 954.0
18.42620 938.0
18.44120 862.0
18.45620 830.0
18.47120 806.0
18.48620 734.0
18.50120 766.0
18.51620 735.0
18.53120 704.0
18.54620 685.0
18.56120 621.0
18.57620 598.0
18.59120 578.0
18.60620 550.0
18.62120 505.0
18.63620 499.0
18.65120 506.0
18.66620 474.0
18.68120 448.0
18.69620 405.0
18.71120 391.0
18.72620 400.0
18.74120 371.0
18.75620 361.0
18.77120 320.0
18.78620 320.0
18.80120 307.0
18.81620 335.0
18.83120 278.0
18.84620 289.0
18.86120 262.0
18.87620 249.0
18.89120 255.0
18.90620 260.0
18.92120 261.0
18.93620 242.0
18.95120 218.0
18.96620 245.0
18.98120 237.0
18.99620 205.0
19.01120 197.0
19.02620 204.0
19.04120 171.0
19.05620 163.0
19.07120 168.0
19.08620 191.0
19.10120 162.0
19.11620 139.0
19.13120 155.0
19.14620 165.0
19.16120 167.0
19.17620 144.0
19.19120 137.0
19.20620 139.0
19.22120 124.0
19.23620 120.0
19.25120 121.0
19.26620 119.0
19.28120 125.0
19.29620 122.0
19.31120 118.0
19.32620 131.0
19.34120 100.0
19.35620 118.0
19.37120 98.0
19.38620 116.0
19.40120 112.0
19.41620 100.0
19.43120 112.0
19.44620 100.0
19.46120 100.0
19.47620 92.0
19.49120 99.0
19.50620 83.0
19.52120 105.0
19.53620 92.0
19.55120 88.0
19.56620 94.0
19.58120 103.0
19.59620 82.0
19.61120 98.0
19.62620 72.0
19.64120 79.0
19.65620 72.0
19.67120 93.0
19.68620 78.0
19.70120 96.0
19.71620 92.0
19.73120 92.0
19.74620 76.0
19.76120 104.0
19.77620 78.0
19.79120 71.0
19.80620 79.0
19.82120 87.0
19.83620 99.0
19.85120 101.0
19.86620 85.0
19.88120 76.0
19.89620 87.0
19.91120 73.0
19.92620 70.0
19.94120 82.0
19.95620 91.0
19.97120 96.0
19.98620 74.0
20.00120 91.0
20.01620 82.0
20.03120 73.0
20.04620 72.0
20.06120 92.0