Folder: DataAnalysis/data/W6788c/XRD_Omega

Note: data/W6788c/XRD_Omega/W6788c_omega_peaks.TXT
No.	Label	Pos. [記mega]	FWHM Left [記mega]	Area [cts*記mega]	Backgr.[cts]	d-spacing [魔	Height [cts]	Shape Left	Status	Integral Breadth [記mega]	FWHM Right [記mega]	Shape Right	Obs. Lorentz B [記mega]	Obs. Gauss B [記mega]	Instr. Lorentz B [記mega]	Instr. Gauss B [記mega]	Crystallite Size [魔	Micro Strain [%]	Crystallite Size only [魔	Micro Strain only [%]
1	Cr2O3 0 0 6	19,494(3)	0,71(1)	263,45	401,81	 	348(9)	0,0(2)	Included	0,756712	 	 	0,001851	0,756712	0,075234	0,063732	-1220,485000	1,915258	118,766300	1,915473

Note: README.md
# Methods
## RSM analysis

Check out [doc](documentation/RSM.md)

File: W6788c_Cr2O3_scan_omega_2deg_step_0.002deg0_1.xy
18.57650 387.0
18.58450 387.0
18.59250 391.0
18.60050 424.0
18.60850 400.0
18.61650 414.0
18.62450 432.0
18.63250 444.0
18.64050 443.0
18.64850 432.0
18.65650 471.0
18.66450 440.0
18.67250 454.0
18.68050 437.0
18.68850 465.0
18.69650 460.0
18.70450 488.0
18.71250 499.0
18.72050 458.0
18.72850 502.0
18.73650 508.0
18.74450 540.0
18.75250 534.0
18.76050 499.0
18.76850 545.0
18.77650 525.0
18.78450 601.0
18.79250 565.0
18.80050 546.0
18.80850 549.0
18.81650 592.0
18.82450 588.0
18.83250 597.0
18.84050 640.0
18.84850 590.0
18.85650 606.0
18.86450 680.0
18.87250 632.0
18.88050 607.0
18.88850 694.0
18.89650 685.0
18.90450 721.0
18.91250 690.0
18.92050 688.0
18.92850 716.0
18.93650 735.0
18.94450 739.0
18.95250 739.0
18.96050 757.0
18.96850 752.0
18.97650 769.0
18.98450 719.0
18.99250 853.0
19.00050 802.0
19.00850 802.0
19.01650 883.0
19.02450 891.0
19.03250 917.0
19.04050 892.0
19.04850 918.0
19.05650 901.0
19.06450 926.0
19.07250 974.0
19.08050 937.0
19.08850 997.0
19.09650 1006.0
19.10450 1023.0
19.11250 1090.0
19.12050 997.0
19.12850 1007.0
19.13650 1107.0
19.14450 1132.0
19.15250 1064.0
19.16050 1052.0
19.16850 1103.0
19.17650 1150.0
19.18450 1126.0
19.19250 1114.0
19.20050 1155.0
19.20850 1113.0
19.21650 1195.0
19.22450 1254.0
19.23250 1176.0
19.24050 1282.0
19.24850 1295.0
19.25650 1270.0
19.26450 1276.0
19.27250 1259.0
19.28050 1311.0
19.28850 1333.0
19.29650 1273.0
19.30450 1340.0
19.31250 1388.0
19.32050 1258.0
19.32850 1352.0
19.33650 1400.0
19.34450 1417.0
19.35250 1405.0
19.36050 1339.0
19.36850 1471.0
19.37650 1409.0
19.38450 1504.0
19.39250 1369.0
19.40050 1409.0
19.40850 1455.0
19.41650 1454.0
19.42450 1488.0
19.43250 1419.0
19.44050 1410.0
19.44850 1485.0
19.45650 1513.0
19.46450 1493.0
19.47250 1518.0
19.48050 1524.0
19.48850 1471.0
19.49650 1443.0
19.50450 1513.0
19.51250 1487.0
19.52050 1596.0
19.52850 1470.0
19.53650 1480.0
19.54450 1524.0
19.55250 1493.0
19.56050 1493.0
19.56850 1478.0
19.57650 1473.0
19.58450 1435.0
19.59250 1428.0
19.60050 1463.0
19.60850 1432.0
19.61650 1486.0
19.62450 1428.0
19.63250 1508.0
19.64050 1442.0
19.64850 1328.0
19.65650 1369.0
19.66450 1412.0
19.67250 1406.0
19.68050 1384.0
19.68850 1387.0
19.69650 1388.0
19.70450 1378.0
19.71250 1437.0
19.72050 1396.0
19.72850 1377.0
19.73650 1364.0
19.74450 1285.0
19.75250 1319.0
19.76050 1260.0
19.76850 1266.0
19.77650 1329.0
19.78450 1336.0
19.79250 1314.0
19.80050 1283.0
19.80850 1246.0
19.81650 1242.0
19.82450 1331.0
19.83250 1222.0
19.84050 1249.0
19.84850 1243.0
19.85650 1114.0
19.86450 1214.0
19.87250 1162.0
19.88050 1165.0
19.88850 1187.0
19.89650 1204.0
19.90450 1079.0
19.91250 1149.0
19.92050 1186.0
19.92850 1183.0
19.93650 1296.0
19.94450 1330.0
19.95250 1369.0
19.96050 1344.0
19.96850 1189.0
19.97650 1193.0
19.98450 1085.0
19.99250 1130.0
20.00050 1107.0
20.00850 1085.0
20.01650 1064.0
20.02450 1049.0
20.03250 1033.0
20.04050 988.0
20.04850 971.0
20.05650 932.0
20.06450 927.0
20.07250 961.0
20.08050 940.0
20.08850 945.0
20.09650 925.0
20.10450 965.0
20.11250 907.0
20.12050 928.0
20.12850 864.0
20.13650 878.0
20.14450 847.0
20.15250 890.0
20.16050 791.0
20.16850 830.0
20.17650 775.0
20.18450 757.0
20.19250 806.0
20.20050 775.0
20.20850 738.0
20.21650 736.0
20.22450 739.0
20.23250 691.0
20.24050 717.0
20.24850 647.0
20.25650 659.0
20.26450 674.0
20.27250 697.0
20.28050 662.0
20.28850 668.0
20.29650 646.0
20.30450 654.0
20.31250 632.0
20.32050 627.0
20.32850 599.0
20.33650 607.0
20.34450 559.0
20.35250 573.0
20.36050 571.0
20.36850 539.0
20.37650 533.0
20.38450 546.0
20.39250 528.0
20.40050 545.0
20.40850 457.0
20.41650 513.0
20.42450 515.0
20.43250 537.0
20.44050 472.0
20.44850 472.0
20.45650 508.0
20.46450 514.0
20.47250 486.0
20.48050 432.0
20.48850 415.0
20.49650 446.0
20.50450 463.0
20.51250 462.0
20.52050 423.0
20.52850 462.0
20.53650 460.0
20.54450 447.0
20.55250 363.0
20.56050 419.0