Folder: DataAnalysis/data/W6784m/XRD_2ThetaOmega

Note: data/W6784m/XRD_2ThetaOmega/W6784m_peaks.TXT
No.	Label	Pos. [°2Th.]	FWHM Left [°2Th.]	Area calc.	Assignment	h	k	l	Multiplicity	F obs.	F calc.	Area [cts*°2Th.]	Derivation	Backgr.[cts]	d-spacing [Å]	Height [cts]	K-A2 / K-A1 Ratio	Matched	Matched by	Rel. Int. [%]	Source	Status	Integral Breadth [°2Th.]
1	Cr2O3 3 0 0	64,594(1)	0,488(5)	0,00	 	 	 	 	 	0,000000	0,000000	230,21	Pure KA1	9,71	1,44167	346(3)	0,500	False	 	1,04	Profile fitting	Included	0,665782
2	Al2O3 3 0 0	68,16362(4)	0,0598(1)	0,00	 	 	 	 	 	0,000000	0,000000	2552,41	Pure KA1	40,72	1,37461	33283(60)	0,500	False	 	100,00	Profile fitting	Included	0,076689

Note: README.md
# Methods
## RSM analysis

Check out [doc](documentation/RSM.md)

File: W6784m_absolute_2th-om_10-130deg_PIXscan_17min_2.xy
10.0035 31.0
10.4072 24.0
10.811 16.0
11.2147 24.0
11.6185 18.0
12.0222 21.0
12.426 27.0
12.8298 21.0
13.2335 14.0
13.6373 21.0
14.041 14.0
14.4448 15.0
14.8485 17.0
15.2523 20.0
15.656 18.0
16.0598 18.0
16.4636 17.0
16.8673 13.0
17.2711 25.0
17.6748 21.0
18.0786 17.0
18.4823 16.0
18.8861 18.0
19.2899 12.0
19.6936 12.0
20.0974 11.0
20.5011 9.0
20.9049 13.0
21.3086 12.0
21.7124 15.0
22.1161 11.0
22.5199 12.0
22.9237 11.0
23.3274 10.0
23.7312 12.0
24.1349 10.0
24.5387 18.0
24.9424 14.0
25.3462 14.0
25.75 7.0
26.1537 13.0
26.5575 8.0
26.9612 12.0
27.365 12.0
27.7687 13.0
28.1725 10.0
28.5762 10.0
28.98 7.0
29.3838 5.0
29.7875 7.0
30.1913 18.0
30.595 12.0
30.9988 17.0
31.4025 12.0
31.8063 12.0
32.2101 13.0
32.6138 12.0
33.0176 7.0
33.4213 4.0
33.8251 14.0
34.2288 12.0
34.6326 8.0
35.0363 15.0
35.4401 10.0
35.8439 9.0
36.2476 11.0
36.6514 12.0
37.0551 10.0
37.4589 15.0
37.8626 14.0
38.2664 25.0
38.6702 10.0
39.0739 14.0
39.4777 13.0
39.8814 8.0
40.2852 5.0
40.6889 10.0
41.0927 9.0
41.4964 11.0
41.9002 12.0
42.304 13.0
42.7077 11.0
43.1115 10.0
43.5152 16.0
43.919 10.0
44.3227 19.0
44.7265 15.0
45.1303 16.0
45.534 9.0
45.9378 8.0
46.3415 11.0
46.7453 14.0
47.149 4.0
47.5528 5.0
47.9565 10.0
48.3603 8.0
48.7641 8.0
49.1678 8.0
49.5716 12.0
49.9753 16.0
50.3791 10.0
50.7828 18.0
51.1866 14.0
51.5903 11.0
51.9941 15.0
52.3979 8.0
52.8016 7.0
53.2054 9.0
53.6091 11.0
54.0129 12.0
54.4166 20.0
54.8204 9.0
55.2242 10.0
55.6279 18.0
56.0317 7.0
56.4354 14.0
56.8392 9.0
57.2429 10.0
57.6467 12.0
58.0504 12.0
58.4542 6.0
58.858 15.0
59.2617 11.0
59.6655 16.0
60.0692 11.0
60.473 13.0
60.8767 50.0
61.2805 13.0
61.6843 17.0
62.088 21.0
62.4918 13.0
62.8955 14.0
63.2993 20.0
63.703 25.0
64.1068 77.0
64.5105 385.0
64.9143 305.0
65.3181 42.0
65.7218 28.0
66.1256 21.0
66.5293 17.0
66.9331 28.0
67.3368 52.0
67.7406 120.0
68.1444 25907.0
68.5481 384.0
68.9519 124.0
69.3556 71.0
69.7594 42.0
70.1631 44.0
70.5669 17.0
70.9706 17.0
71.3744 30.0
71.7782 24.0
72.1819 17.0
72.5857 16.0
72.9894 26.0
73.3932 16.0
73.7969 15.0
74.2007 19.0
74.6045 16.0
75.0082 12.0
75.412 18.0
75.8157 16.0
76.2195 13.0
76.6232 15.0
77.027 14.0
77.4307 18.0
77.8345 18.0
78.2383 13.0
78.642 19.0
79.0458 12.0
79.4495 9.0
79.8533 13.0
80.257 19.0
80.6608 14.0
81.0646 14.0
81.4683 13.0
81.8721 12.0
82.2758 15.0
82.6796 19.0
83.0833 17.0
83.4871 14.0
83.8908 13.0
84.2946 14.0
84.6984 16.0
85.1021 10.0
85.5059 16.0
85.9096 18.0
86.3134 16.0
86.7171 8.0
87.1209 14.0
87.5247 8.0
87.9284 10.0
88.3322 12.0
88.7359 14.0
89.1397 16.0
89.5434 13.0
89.9472 11.0
90.3509 14.0
90.7547 14.0
91.1585 7.0
91.5622 12.0
91.966 10.0
92.3697 14.0
92.7735 17.0
93.1772 12.0
93.581 11.0
93.9848 17.0
94.3885 16.0
94.7923 19.0
95.196 10.0
95.5998 17.0
96.0035 13.0
96.4073 15.0
96.811 15.0
97.2148 13.0
97.6186 20.0
98.0223 9.0
98.4261 14.0
98.8298 15.0
99.2336 14.0
99.6373 15.0
100.041 15.0
100.445 13.0
100.849 19.0
101.252 9.0
101.656 13.0
102.06 15.0
102.464 15.0
102.867 13.0
103.271 13.0
103.675 23.0
104.079 11.0
104.482 13.0
104.886 18.0
105.29 15.0
105.694 18.0
106.097 16.0
106.501 10.0
106.905 10.0
107.309 13.0
107.712 12.0
108.116 9.0
108.52 8.0
108.924 17.0
109.327 15.0
109.731 20.0
110.135 18.0
110.539 11.0
110.943 16.0
111.346 16.0
111.75 19.0
112.154 13.0
112.558 17.0
112.961 12.0
113.365 16.0
113.769 15.0
114.173 20.0
114.576 17.0
114.98 20.0
115.384 11.0
115.788 17.0
116.191 16.0
116.595 14.0
116.999 13.0
117.403 14.0
117.806 15.0
118.21 15.0
118.614 17.0
119.018 14.0
119.421 14.0
119.825 18.0
120.229 11.0
120.633 14.0
121.036 12.0
121.44 19.0
121.844 12.0
122.248 12.0
122.651 19.0
123.055 13.0
123.459 21.0
123.863 11.0
124.266 11.0
124.67 13.0
125.074 16.0
125.478 15.0
125.881 14.0
126.285 19.0
126.689 18.0
127.093 14.0
127.497 9.0
127.9 14.0
128.304 12.0
128.708 17.0
129.112 15.0
129.515 19.0
129.919 17.0
129.998 18.0