Folder: DataAnalysis/data/W6817c/XRD_Omega/archive

Note: README.md
# Methods
## RSM analysis

Check out [doc](documentation/RSM.md)

File: W6817c_Omega-Scan_2deg_0.002_0_8_new.xy
18.86680 196.0
18.87480 219.0
18.88280 254.0
18.89080 234.0
18.89880 210.0
18.90680 234.0
18.91480 206.0
18.92280 208.0
18.93080 215.0
18.93880 230.0
18.94680 210.0
18.95480 262.0
18.96280 223.0
18.97080 223.0
18.97880 210.0
18.98680 266.0
18.99480 232.0
19.00280 254.0
19.01080 267.0
19.01880 248.0
19.02680 253.0
19.03480 274.0
19.04280 283.0
19.05080 269.0
19.05880 273.0
19.06680 265.0
19.07480 276.0
19.08280 300.0
19.09080 299.0
19.09880 286.0
19.10680 323.0
19.11480 306.0
19.12280 304.0
19.13080 307.0
19.13880 338.0
19.14680 327.0
19.15480 348.0
19.16280 384.0
19.17080 377.0
19.17880 388.0
19.18680 402.0
19.19480 435.0
19.20280 474.0
19.21080 563.0
19.21880 611.0
19.22680 628.0
19.23480 642.0
19.24280 652.0
19.25080 680.0
19.25880 696.0
19.26680 717.0
19.27480 736.0
19.28280 761.0
19.29080 811.0
19.29880 833.0
19.30680 882.0
19.31480 1001.0
19.32280 981.0
19.33080 1064.0
19.33880 1083.0
19.34680 1196.0
19.35480 1210.0
19.36280 1174.0
19.37080 1237.0
19.37880 1403.0
19.38680 1364.0
19.39480 1472.0
19.40280 1489.0
19.41080 1680.0
19.41880 1716.0
19.42680 1852.0
19.43480 1862.0
19.44280 1939.0
19.45080 2037.0
19.45880 2146.0
19.46680 2127.0
19.47480 2216.0
19.48280 2112.0
19.49080 2170.0
19.49880 2146.0
19.50680 2051.0
19.51480 1943.0
19.52280 1943.0
19.53080 1849.0
19.53880 1718.0
19.54680 1725.0
19.55480 1589.0
19.56280 1550.0
19.57080 1429.0
19.57880 1368.0
19.58680 1264.0
19.59480 1160.0
19.60280 1068.0
19.61080 1070.0
19.61880 1011.0
19.62680 891.0
19.63480 875.0
19.64280 807.0
19.65080 803.0
19.65880 751.0
19.66680 701.0
19.67480 679.0
19.68280 674.0
19.69080 611.0
19.69880 575.0
19.70680 561.0
19.71480 553.0
19.72280 510.0
19.73080 465.0
19.73880 456.0
19.74680 405.0
19.75480 412.0
19.76280 455.0
19.77080 386.0
19.77880 394.0
19.78680 412.0
19.79480 402.0
19.80280 318.0
19.81080 376.0
19.81880 416.0
19.82680 369.0
19.83480 403.0
19.84280 520.0
19.85080 605.0
19.85880 596.0
19.86680 523.0
19.87480 492.0
19.88280 437.0
19.89080 399.0
19.89880 416.0
19.90680 365.0
19.91480 358.0
19.92280 376.0
19.93080 364.0
19.93880 353.0
19.94680 307.0
19.95480 288.0
19.96280 287.0
19.97080 323.0
19.97880 260.0
19.98680 303.0
19.99480 326.0
20.00280 342.0
20.01080 295.0
20.01880 315.0
20.02680 271.0
20.03480 287.0
20.04280 293.0
20.05080 294.0
20.05880 244.0
20.06680 217.0
20.07480 245.0
20.08280 233.0
20.09080 281.0
20.09880 244.0
20.10680 240.0
20.11480 238.0
20.12280 231.0
20.13080 244.0
20.13880 225.0
20.14680 230.0
20.15480 204.0
20.16280 194.0
20.17080 209.0
20.17880 235.0
20.18680 225.0
20.19480 218.0
20.20280 236.0
20.21080 242.0
20.21880 248.0
20.22680 228.0
20.23480 210.0
20.24280 205.0
20.25080 233.0
20.25880 257.0
20.26680 228.0
20.27480 197.0
20.28280 223.0
20.29080 228.0
20.29880 218.0
20.30680 241.0
20.31480 241.0
20.32280 243.0
20.33080 235.0
20.33880 245.0
20.34680 247.0
20.35480 243.0
20.36280 227.0
20.37080 217.0
20.37880 261.0
20.38680 243.0
20.39480 218.0
20.40280 229.0
20.41080 247.0
20.41880 262.0
20.42680 271.0
20.43480 236.0
20.44280 262.0
20.45080 238.0
20.45880 252.0
20.46680 231.0
20.47480 197.0
20.48280 187.0
20.49080 171.0
20.49880 193.0
20.50680 176.0
20.51480 190.0
20.52280 183.0
20.53080 164.0
20.53880 190.0
20.54680 211.0
20.55480 201.0
20.56280 201.0
20.57080 171.0
20.57880 167.0
20.58680 166.0
20.59480 181.0
20.60280 177.0
20.61080 196.0
20.61880 184.0
20.62680 186.0
20.63480 182.0
20.64280 186.0
20.65080 186.0
20.65880 181.0
20.66680 204.0
20.67480 211.0
20.68280 177.0
20.69080 184.0
20.69880 197.0
20.70680 184.0
20.71480 196.0
20.72080 159.0