Folder: DataAnalysis/data/w6930a/XRD_Omega

Note: README.md
# Methods
## RSM analysis

Check out [doc](documentation/RSM.md)

File: film_a_scan_omega_4deg_step_0.005deg0_C3.xy
16.30970 32.0
16.32470 35.0
16.33970 39.0
16.35470 38.0
16.36970 34.0
16.38470 36.0
16.39970 36.0
16.41470 35.0
16.42970 42.0
16.44470 29.0
16.45970 31.0
16.47470 25.0
16.48970 28.0
16.50470 35.0
16.51970 38.0
16.53470 32.0
16.54970 38.0
16.56470 25.0
16.57970 26.0
16.59470 34.0
16.60970 26.0
16.62470 36.0
16.63970 22.0
16.65470 42.0
16.66970 28.0
16.68470 38.0
16.69970 37.0
16.71470 26.0
16.72970 34.0
16.74470 31.0
16.75970 14.0
16.77470 40.0
16.78970 39.0
16.80470 28.0
16.81970 33.0
16.83470 26.0
16.84970 32.0
16.86470 31.0
16.87970 32.0
16.89470 34.0
16.90970 39.0
16.92470 39.0
16.93970 38.0
16.95470 25.0
16.96970 32.0
16.98470 33.0
16.99970 34.0
17.01470 31.0
17.02970 37.0
17.04470 35.0
17.05970 37.0
17.07470 35.0
17.08970 28.0
17.10470 23.0
17.11970 34.0
17.13470 36.0
17.14970 24.0
17.16470 35.0
17.17970 37.0
17.19470 33.0
17.20970 34.0
17.22470 37.0
17.23970 34.0
17.25470 41.0
17.26970 42.0
17.28470 46.0
17.29970 46.0
17.31470 47.0
17.32970 44.0
17.34470 42.0
17.35970 35.0
17.37470 38.0
17.38970 46.0
17.40470 33.0
17.41970 41.0
17.43470 38.0
17.44970 32.0
17.46470 32.0
17.47970 37.0
17.49470 38.0
17.50970 45.0
17.52470 36.0
17.53970 36.0
17.55470 34.0
17.56970 31.0
17.58470 23.0
17.59970 35.0
17.61470 50.0
17.62970 38.0
17.64470 39.0
17.65970 30.0
17.67470 50.0
17.68970 33.0
17.70470 46.0
17.71970 29.0
17.73470 36.0
17.74970 48.0
17.76470 36.0
17.77970 36.0
17.79470 32.0
17.80970 50.0
17.82470 39.0
17.83970 49.0
17.85470 35.0
17.86970 39.0
17.88470 36.0
17.89970 29.0
17.91470 44.0
17.92970 47.0
17.94470 39.0
17.95970 39.0
17.97470 47.0
17.98970 44.0
18.00470 38.0
18.01970 30.0
18.03470 36.0
18.04970 32.0
18.06470 35.0
18.07970 37.0
18.09470 34.0
18.10970 35.0
18.12470 53.0
18.13970 64.0
18.15470 62.0
18.16970 58.0
18.18470 62.0
18.19970 73.0
18.21470 56.0
18.22970 97.0
18.24470 113.0
18.25970 132.0
18.27470 114.0
18.28970 84.0
18.30470 88.0
18.31970 98.0
18.33470 84.0
18.34970 81.0
18.36470 83.0
18.37970 80.0
18.39470 94.0
18.40970 49.0
18.42470 53.0
18.43970 56.0
18.45470 35.0
18.46970 48.0
18.48470 31.0
18.49970 31.0
18.51470 40.0
18.52970 43.0
18.54470 42.0
18.55970 41.0
18.57470 45.0
18.58970 37.0
18.60470 38.0
18.61970 50.0
18.63470 41.0
18.64970 31.0
18.66470 38.0
18.67970 33.0
18.69470 40.0
18.70970 38.0
18.72470 43.0
18.73970 33.0
18.75470 34.0
18.76970 29.0
18.78470 26.0
18.79970 31.0
18.81470 34.0
18.82970 31.0
18.84470 50.0
18.85970 42.0
18.87470 26.0
18.88970 36.0
18.90470 35.0
18.91970 33.0
18.93470 32.0
18.94970 45.0
18.96470 27.0
18.97970 47.0
18.99470 28.0
19.00970 41.0
19.02470 30.0
19.03970 28.0
19.05470 43.0
19.06970 41.0
19.08470 38.0
19.09970 37.0
19.11470 35.0
19.12970 31.0
19.14470 37.0
19.15970 32.0
19.17470 34.0
19.18970 34.0
19.20470 25.0
19.21970 40.0
19.23470 38.0
19.24970 36.0
19.26470 31.0
19.27970 26.0
19.29470 32.0
19.30970 25.0
19.32470 30.0
19.33970 24.0
19.35470 33.0
19.36970 42.0
19.38470 31.0
19.39970 37.0
19.41470 38.0
19.42970 33.0
19.44470 33.0
19.45970 33.0
19.47470 27.0
19.48970 32.0
19.50470 40.0
19.51970 42.0
19.53470 28.0
19.54970 35.0
19.56470 37.0
19.57970 34.0
19.59470 27.0
19.60970 23.0
19.62470 29.0
19.63970 24.0
19.65470 31.0
19.66970 42.0
19.68470 29.0
19.69970 38.0
19.71470 30.0
19.72970 38.0
19.74470 30.0
19.75970 31.0
19.77470 43.0
19.78970 24.0
19.80470 26.0
19.81970 35.0
19.83470 31.0
19.84970 25.0
19.86470 22.0
19.87970 24.0
19.89470 32.0
19.90970 42.0
19.92470 23.0
19.93970 33.0
19.95470 39.0
19.96970 25.0
19.98470 39.0
19.99970 19.0
20.01470 34.0
20.02970 34.0
20.04470 31.0
20.05970 25.0
20.07470 30.0
20.08970 35.0
20.10470 40.0
20.11970 29.0
20.13470 36.0
20.14970 23.0
20.16470 38.0
20.17970 29.0
20.19470 40.0
20.20970 38.0
20.22470 18.0
20.23970 27.0
20.25470 30.0
20.26970 29.0