Folder: DataAnalysis/data/w6930a/XRD_2ThetaOmega

Note: data/w6930a/XRD_2ThetaOmega/W6930a_peaks.TXT
No.	Label	Pos. [°2Th.]	FWHM Left [°2Th.]	Area [cts*°2Th.]	Backgr.[cts]	d-spacing [Å]	Height [cts]	Shape Left	Status	Integral Breadth [°2Th.]	FWHM Right [°2Th.]	Shape Right	Obs. Lorentz B [°2Th.]	Obs. Gauss B [°2Th.]	Instr. Lorentz B [°2Th.]	Instr. Gauss B [°2Th.]	Crystallite Size [Å]	Micro Strain [%]	Crystallite Size only [Å]	Micro Strain only [%]
1	Cr2O3 1 1 0	36,078(5)	0,13(2)	8,93	66,97	2,48753	43(5)	1,0(3)	Included	0,207115	 	 	0,206144	0,003498	0,073948	0,062646	702,240300	-0,083801	701,838900	0,177215
2	Al2O3 1 1 0	37,71246(1)	0,03274(3)	9810,23	114,55	2,38339	236751(221)	0,493(1)	Included	0,041437	 	 	0,022067	0,025861	0,073930	0,062631	-1798,471000	-0,072878	29493,040000	0,004041

Note: README.md
# Methods
## RSM analysis

Check out [doc](documentation/RSM.md)

File: scan_2th-om_a_Cr2O3_30-40deg_PIXscan_4min_C3.xy
30.0025 61.0
30.0369 64.0
30.0714 49.0
30.1059 49.0
30.1403 60.0
30.1748 52.0
30.2093 60.0
30.2437 56.0
30.2782 64.0
30.3127 70.0
30.3471 58.0
30.3816 58.0
30.4161 54.0
30.4505 39.0
30.485 74.0
30.5195 58.0
30.5539 73.0
30.5884 59.0
30.6229 46.0
30.6573 45.0
30.6918 44.0
30.7263 75.0
30.7607 50.0
30.7952 74.0
30.8297 40.0
30.8641 59.0
30.8986 72.0
30.9331 64.0
30.9675 74.0
31.002 57.0
31.0365 54.0
31.0709 45.0
31.1054 67.0
31.1399 50.0
31.1743 49.0
31.2088 44.0
31.2433 59.0
31.2777 48.0
31.3122 59.0
31.3467 68.0
31.3811 55.0
31.4156 46.0
31.4501 69.0
31.4845 83.0
31.519 55.0
31.5535 46.0
31.5879 53.0
31.6224 57.0
31.6569 57.0
31.6913 46.0
31.7258 58.0
31.7603 59.0
31.7947 67.0
31.8292 42.0
31.8637 56.0
31.8981 65.0
31.9326 58.0
31.9671 52.0
32.0015 52.0
32.036 61.0
32.0705 50.0
32.1049 67.0
32.1394 60.0
32.1739 55.0
32.2083 53.0
32.2428 48.0
32.2773 51.0
32.3118 61.0
32.3462 52.0
32.3807 48.0
32.4152 60.0
32.4496 57.0
32.4841 58.0
32.5186 49.0
32.553 56.0
32.5875 49.0
32.622 66.0
32.6564 49.0
32.6909 63.0
32.7254 60.0
32.7598 48.0
32.7943 56.0
32.8288 68.0
32.8632 71.0
32.8977 59.0
32.9322 56.0
32.9666 56.0
33.0011 55.0
33.0356 54.0
33.07 61.0
33.1045 43.0
33.139 50.0
33.1734 61.0
33.2079 55.0
33.2424 55.0
33.2768 67.0
33.3113 55.0
33.3458 65.0
33.3802 64.0
33.4147 65.0
33.4492 61.0
33.4836 67.0
33.5181 77.0
33.5526 63.0
33.587 68.0
33.6215 47.0
33.656 61.0
33.6904 56.0
33.7249 53.0
33.7594 45.0
33.7938 68.0
33.8283 56.0
33.8628 62.0
33.8972 91.0
33.9317 353.0
33.9662 652.0
34.0006 147.0
34.0351 94.0
34.0696 90.0
34.104 72.0
34.1385 60.0
34.173 62.0
34.2074 66.0
34.2419 64.0
34.2764 60.0
34.3108 60.0
34.3453 69.0
34.3798 72.0
34.4142 70.0
34.4487 67.0
34.4832 60.0
34.5176 64.0
34.5521 60.0
34.5866 49.0
34.621 70.0
34.6555 69.0
34.69 60.0
34.7244 74.0
34.7589 62.0
34.7934 51.0
34.8278 73.0
34.8623 76.0
34.8968 74.0
34.9312 60.0
34.9657 57.0
35.0002 52.0
35.0346 67.0
35.0691 73.0
35.1036 77.0
35.138 69.0
35.1725 61.0
35.207 56.0
35.2414 66.0
35.2759 74.0
35.3104 64.0
35.3448 59.0
35.3793 50.0
35.4138 57.0
35.4482 63.0
35.4827 69.0
35.5172 71.0
35.5516 67.0
35.5861 62.0
35.6206 69.0
35.655 61.0
35.6895 63.0
35.724 57.0
35.7584 72.0
35.7929 61.0
35.8274 65.0
35.8619 63.0
35.8963 59.0
35.9308 79.0
35.9653 76.0
35.9997 85.0
36.0342 95.0
36.0687 122.0
36.1031 114.0
36.1376 116.0
36.1721 99.0
36.2065 101.0
36.241 104.0
36.2755 78.0
36.3099 96.0
36.3444 94.0
36.3789 104.0
36.4133 82.0
36.4478 81.0
36.4823 97.0
36.5167 89.0
36.5512 83.0
36.5857 108.0
36.6201 100.0
36.6546 106.0
36.6891 122.0
36.7235 112.0
36.758 129.0
36.7925 148.0
36.8269 146.0
36.8614 149.0
36.8959 144.0
36.9303 153.0
36.9648 179.0
36.9993 176.0
37.0337 184.0
37.0682 166.0
37.1027 259.0
37.1371 199.0
37.1716 289.0
37.2061 310.0
37.2405 323.0
37.275 375.0
37.3095 373.0
37.3439 464.0
37.3784 478.0
37.4129 549.0
37.4473 702.0
37.4818 809.0
37.5163 1628.0
37.5507 2315.0
37.5852 2233.0
37.6197 2973.0
37.6541 7091.0
37.6886 57748.0
37.7231 180144.0
37.7575 15453.0
37.792 59368.0
37.8265 62655.0
37.8609 5810.0
37.8954 2459.0
37.9299 1545.0
37.9643 1086.0
37.9988 811.0
38.0333 698.0
38.0677 619.0
38.1022 505.0
38.1367 482.0
38.1711 360.0
38.2056 376.0
38.2401 328.0
38.2745 260.0
38.309 267.0
38.3435 203.0
38.3779 164.0
38.4124 142.0
38.4469 140.0
38.4813 142.0
38.5158 145.0
38.5503 111.0
38.5847 120.0
38.6192 118.0
38.6537 105.0
38.6881 92.0
38.7226 94.0
38.7571 99.0
38.7915 92.0
38.826 87.0
38.8605 101.0
38.8949 81.0
38.9294 82.0
38.9639 81.0
38.9983 88.0
39.0328 77.0
39.0673 86.0
39.1017 70.0
39.1362 70.0
39.1707 71.0
39.2051 60.0
39.2396 48.0
39.2741 88.0
39.3085 80.0
39.343 83.0
39.3775 88.0
39.412 70.0
39.4464 78.0
39.4809 84.0
39.5154 86.0
39.5498 81.0
39.5843 69.0
39.6188 92.0
39.6532 89.0
39.6877 78.0
39.7222 71.0
39.7566 59.0
39.7911 64.0
39.8256 76.0
39.86 81.0
39.8945 68.0
39.929 69.0
39.9634 49.0
39.9979 72.0