Folder: DataAnalysis/data/W6855c/XRD_Omega

Note: data/W6855c/XRD_Omega/W6855c_omega_peaks.TXT
No.	Label	Pos. [記mega]	FWHM Left [記mega]	Area [cts*記mega]	Backgr.[cts]	d-spacing [魔	Height [cts]	Shape Left	Status	Integral Breadth [記mega]	FWHM Right [記mega]	Shape Right	Obs. Lorentz B [記mega]	Obs. Gauss B [記mega]	Instr. Lorentz B [記mega]	Instr. Gauss B [記mega]	Crystallite Size [魔	Micro Strain [%]	Crystallite Size only [魔	Micro Strain only [%]
1	Cr2O3 0 0 6	19,7596(4)	0,863(1)	2009,59	940,16	 	2188(3)	0,000(9)	Included	0,918343	 	 	0,002246	0,918343	0,075199	0,063702	-1228,176000	2,295166	97,790050	2,295423

Note: README.md
# Methods
## RSM analysis

Check out [doc](documentation/RSM.md)

File: W6855c_Cr2O3_scan_omega_2deg_step_0.002deg0_21.xy
18.79970 1069.0
18.80770 985.0
18.81570 982.0
18.82370 1000.0
18.83170 1077.0
18.83970 1059.0
18.84770 1082.0
18.85570 1021.0
18.86370 1112.0
18.87170 1076.0
18.87970 1109.0
18.88770 1145.0
18.89570 1148.0
18.90370 1135.0
18.91170 1166.0
18.91970 1102.0
18.92770 1108.0
18.93570 1210.0
18.94370 1270.0
18.95170 1245.0
18.95970 1239.0
18.96770 1251.0
18.97570 1221.0
18.98370 1324.0
18.99170 1357.0
18.99970 1303.0
19.00770 1310.0
19.01570 1387.0
19.02370 1395.0
19.03170 1413.0
19.03970 1457.0
19.04770 1462.0
19.05570 1381.0
19.06370 1451.0
19.07170 1537.0
19.07970 1534.0
19.08770 1571.0
19.09570 1529.0
19.10370 1578.0
19.11170 1593.0
19.11970 1689.0
19.12770 1561.0
19.13570 1645.0
19.14370 1808.0
19.15170 1786.0
19.15970 1809.0
19.16770 1838.0
19.17570 1824.0
19.18370 1913.0
19.19170 1940.0
19.19970 1958.0
19.20770 1915.0
19.21570 2005.0
19.22370 2031.0
19.23170 2075.0
19.23970 2063.0
19.24770 2147.0
19.25570 2131.0
19.26370 2201.0
19.27170 2174.0
19.27970 2303.0
19.28770 2202.0
19.29570 2384.0
19.30370 2412.0
19.31170 2571.0
19.31970 2487.0
19.32770 2538.0
19.33570 2548.0
19.34370 2600.0
19.35170 2609.0
19.35970 2711.0
19.36770 2652.0
19.37570 2792.0
19.38370 2848.0
19.39170 2773.0
19.39970 2773.0
19.40770 2865.0
19.41570 2909.0
19.42370 2929.0
19.43170 3001.0
19.43970 3042.0
19.44770 3144.0
19.45570 3139.0
19.46370 3125.0
19.47170 3331.0
19.47970 3163.0
19.48770 3299.0
19.49570 3300.0
19.50370 3495.0
19.51170 3420.0
19.51970 3503.0
19.52770 3589.0
19.53570 3488.0
19.54370 3552.0
19.55170 3663.0
19.55970 3643.0
19.56770 3768.0
19.57570 3689.0
19.58370 3663.0
19.59170 3807.0
19.59970 3793.0
19.60770 3896.0
19.61570 3878.0
19.62370 3868.0
19.63170 4070.0
19.63970 3770.0
19.64770 4092.0
19.65570 4025.0
19.66370 4103.0
19.67170 4035.0
19.67970 4056.0
19.68770 4133.0
19.69570 4150.0
19.70370 4165.0
19.71170 4186.0
19.71970 4226.0
19.72770 4321.0
19.73570 4096.0
19.74370 4200.0
19.75170 4281.0
19.75970 4229.0
19.76770 4340.0
19.77570 4341.0
19.78370 4250.0
19.79170 4216.0
19.79970 4223.0
19.80770 4244.0
19.81570 4242.0
19.82370 4243.0
19.83170 4233.0
19.83970 4278.0
19.84770 4131.0
19.85570 4109.0
19.86370 4123.0
19.87170 4119.0
19.87970 4161.0
19.88770 4133.0
19.89570 4036.0
19.90370 4116.0
19.91170 3985.0
19.91970 4028.0
19.92770 4018.0
19.93570 4035.0
19.94370 4010.0
19.95170 3847.0
19.95970 3831.0
19.96770 3639.0
19.97570 3684.0
19.98370 3727.0
19.99170 3762.0
19.99970 3694.0
20.00770 3506.0
20.01570 3599.0
20.02370 3581.0
20.03170 3458.0
20.03970 3432.0
20.04770 3442.0
20.05570 3362.0
20.06370 3442.0
20.07170 3264.0
20.07970 3236.0
20.08770 3198.0
20.09570 3148.0
20.10370 3066.0
20.11170 3003.0
20.11970 2885.0
20.12770 2986.0
20.13570 2879.0
20.14370 2848.0
20.15170 2856.0
20.15970 2808.0
20.16770 2795.0
20.17570 2632.0
20.18370 2653.0
20.19170 2677.0
20.19970 2601.0
20.20770 2581.0
20.21570 2421.0
20.22370 2402.0
20.23170 2338.0
20.23970 2433.0
20.24770 2398.0
20.25570 2412.0
20.26370 2435.0
20.27170 2205.0
20.27970 2222.0
20.28770 2183.0
20.29570 2219.0
20.30370 2172.0
20.31170 2156.0
20.31970 2056.0
20.32770 2100.0
20.33570 2062.0
20.34370 2014.0
20.35170 2004.0
20.35970 1940.0
20.36770 1944.0
20.37570 1859.0
20.38370 1793.0
20.39170 1844.0
20.39970 1883.0
20.40770 1874.0
20.41570 1832.0
20.42370 1744.0
20.43170 1646.0
20.43970 1559.0
20.44770 1501.0
20.45570 1503.0
20.46370 1401.0
20.47170 1474.0
20.47970 1422.0
20.48770 1341.0
20.49570 1406.0
20.50370 1321.0
20.51170 1281.0
20.51970 1257.0
20.52770 1323.0
20.53570 1213.0
20.54370 1224.0
20.55170 1224.0
20.55970 1335.0
20.56770 1247.0
20.57570 1169.0
20.58370 1241.0
20.59170 1159.0
20.59970 1187.0
20.60770 1145.0
20.61570 1081.0
20.62370 1125.0
20.63170 1096.0
20.63970 1040.0
20.64770 1015.0
20.65570 1026.0
20.66370 992.0
20.67170 980.0
20.67970 1012.0
20.68770 963.0
20.69570 978.0
20.70370 943.0
20.71170 966.0
20.71970 967.0
20.72770 952.0
20.73570 936.0
20.74370 861.0
20.75170 913.0
20.75970 868.0
20.76770 851.0
20.77570 867.0
20.78370 919.0