Folder: DataAnalysis/data/W6856c/XRD_Omega

Note: data/W6856c/XRD_Omega/W6856c_omega_peaks.TXT
No.	Pos. [記mega]	FWHM Left [記mega]	Area [cts*記mega]	Backgr.[cts]	d-spacing [魔	Height [cts]	Shape Left	Status	Integral Breadth [記mega]	FWHM Right [記mega]	Shape Right	Obs. Lorentz B [記mega]	Obs. Gauss B [記mega]	Instr. Lorentz B [記mega]	Instr. Gauss B [記mega]	Crystallite Size [魔	Micro Strain [%]	Crystallite Size only [魔	Micro Strain only [%]
1	19,7669(5)	0,895(2)	1905,24	909,87	 	2001(3)	0,00(1)	Included	0,952172	 	 	0,002329	0,952172	0,075198	0,063701	-1229,600000	2,379229	94,300830	2,379495

Note: README.md
# Methods
## RSM analysis

Check out [doc](documentation/RSM.md)

File: W6856c_Cr2O3_scan_omega_2deg_step_0.002deg0_22.xy
18.80870 1037.0
18.81670 1014.0
18.82470 943.0
18.83270 1054.0
18.84070 1048.0
18.84870 1083.0
18.85670 1059.0
18.86470 1067.0
18.87270 1109.0
18.88070 1119.0
18.88870 1163.0
18.89670 1148.0
18.90470 1164.0
18.91270 1175.0
18.92070 1205.0
18.92870 1153.0
18.93670 1158.0
18.94470 1193.0
18.95270 1228.0
18.96070 1203.0
18.96870 1199.0
18.97670 1250.0
18.98470 1230.0
18.99270 1338.0
19.00070 1342.0
19.00870 1315.0
19.01670 1457.0
19.02470 1403.0
19.03270 1440.0
19.04070 1491.0
19.04870 1446.0
19.05670 1436.0
19.06470 1505.0
19.07270 1535.0
19.08070 1563.0
19.08870 1649.0
19.09670 1537.0
19.10470 1607.0
19.11270 1694.0
19.12070 1644.0
19.12870 1711.0
19.13670 1691.0
19.14470 1723.0
19.15270 1785.0
19.16070 1753.0
19.16870 1773.0
19.17670 1837.0
19.18470 1819.0
19.19270 2018.0
19.20070 1999.0
19.20870 1967.0
19.21670 1967.0
19.22470 1971.0
19.23270 2010.0
19.24070 1989.0
19.24870 2097.0
19.25670 2111.0
19.26470 2217.0
19.27270 2186.0
19.28070 2227.0
19.28870 2243.0
19.29670 2208.0
19.30470 2129.0
19.31270 2349.0
19.32070 2371.0
19.32870 2438.0
19.33670 2436.0
19.34470 2497.0
19.35270 2511.0
19.36070 2491.0
19.36870 2532.0
19.37670 2604.0
19.38470 2704.0
19.39270 2752.0
19.40070 2623.0
19.40870 2713.0
19.41670 2771.0
19.42470 2891.0
19.43270 2820.0
19.44070 2880.0
19.44870 2863.0
19.45670 2951.0
19.46470 3004.0
19.47270 2944.0
19.48070 2969.0
19.48870 3042.0
19.49670 3138.0
19.50470 3237.0
19.51270 3180.0
19.52070 3235.0
19.52870 3366.0
19.53670 3330.0
19.54470 3305.0
19.55270 3386.0
19.56070 3389.0
19.56870 3374.0
19.57670 3429.0
19.58470 3427.0
19.59270 3484.0
19.60070 3575.0
19.60870 3599.0
19.61670 3559.0
19.62470 3628.0
19.63270 3505.0
19.64070 3542.0
19.64870 3671.0
19.65670 3818.0
19.66470 3798.0
19.67270 3809.0
19.68070 3665.0
19.68870 3791.0
19.69670 3751.0
19.70470 3812.0
19.71270 3907.0
19.72070 3908.0
19.72870 3996.0
19.73670 3937.0
19.74470 3996.0
19.75270 3923.0
19.76070 3923.0
19.76870 3868.0
19.77670 3861.0
19.78470 3965.0
19.79270 3912.0
19.80070 4027.0
19.80870 3933.0
19.81670 3940.0
19.82470 3932.0
19.83270 3964.0
19.84070 3889.0
19.84870 3999.0
19.85670 3876.0
19.86470 3944.0
19.87270 3934.0
19.88070 3976.0
19.88870 3835.0
19.89670 3877.0
19.90470 3797.0
19.91270 3762.0
19.92070 3779.0
19.92870 3760.0
19.93670 3684.0
19.94470 3731.0
19.95270 3488.0
19.96070 3601.0
19.96870 3560.0
19.97670 3683.0
19.98470 3479.0
19.99270 3539.0
20.00070 3422.0
20.00870 3336.0
20.01670 3308.0
20.02470 3199.0
20.03270 3238.0
20.04070 3218.0
20.04870 3229.0
20.05670 3295.0
20.06470 3023.0
20.07270 3031.0
20.08070 2957.0
20.08870 3031.0
20.09670 2977.0
20.10470 2854.0
20.11270 2884.0
20.12070 2835.0
20.12870 2779.0
20.13670 2750.0
20.14470 2730.0
20.15270 2588.0
20.16070 2648.0
20.16870 2669.0
20.17670 2606.0
20.18470 2574.0
20.19270 2508.0
20.20070 2535.0
20.20870 2438.0
20.21670 2474.0
20.22470 2369.0
20.23270 2385.0
20.24070 2338.0
20.24870 2245.0
20.25670 2222.0
20.26470 2245.0
20.27270 2219.0
20.28070 2254.0
20.28870 2119.0
20.29670 2078.0
20.30470 2038.0
20.31270 2077.0
20.32070 2052.0
20.32870 2066.0
20.33670 1916.0
20.34470 1963.0
20.35270 1973.0
20.36070 1914.0
20.36870 1895.0
20.37670 1809.0
20.38470 1887.0
20.39270 1884.0
20.40070 1829.0
20.40870 1752.0
20.41670 1696.0
20.42470 1788.0
20.43270 1690.0
20.44070 1556.0
20.44870 1564.0
20.45670 1385.0
20.46470 1414.0
20.47270 1389.0
20.48070 1336.0
20.48870 1356.0
20.49670 1312.0
20.50470 1348.0
20.51270 1248.0
20.52070 1227.0
20.52870 1304.0
20.53670 1186.0
20.54470 1212.0
20.55270 1210.0
20.56070 1229.0
20.56870 1122.0
20.57670 1157.0
20.58470 1125.0
20.59270 1184.0
20.60070 1117.0
20.60870 1086.0
20.61670 1105.0
20.62470 1063.0
20.63270 1054.0
20.64070 1033.0
20.64870 1036.0
20.65670 1048.0
20.66470 1020.0
20.67270 961.0
20.68070 948.0
20.68870 964.0
20.69670 933.0
20.70470 980.0
20.71270 829.0
20.72070 918.0
20.72870 881.0
20.73670 857.0
20.74470 861.0
20.75270 899.0
20.76070 870.0
20.76870 812.0
20.77670 813.0
20.78470 840.0
20.79270 838.0