Folder: DataAnalysis/data/W6856c/XRD_2ThetaOmega

Note: data/W6856c/XRD_2ThetaOmega/W6856c_peaks.TXT
No.	Label	Pos. [°2Th.]	FWHM Left [°2Th.]	Area [cts*°2Th.]	Backgr.[cts]	d-spacing [Å]	Height [cts]	Shape Left	Status	Integral Breadth [°2Th.]	FWHM Right [°2Th.]	Shape Right	Obs. Lorentz B [°2Th.]	Obs. Gauss B [°2Th.]	Instr. Lorentz B [°2Th.]	Instr. Gauss B [°2Th.]	Crystallite Size [Å]	Micro Strain [%]	Crystallite Size only [Å]	Micro Strain only [%]
1	Cr2O3 0 0 6	39,517(1)	0,281(5)	109,08	9,00	2,27860	268(3)	0,83(3)	Included	0,407259	 	 	0,345166	0,136489	0,073936	0,062636	345,801000	0,147306	280,707300	0,405868
2	Al2O3 0 0 6	41,60889(9)	0,0516(2)	364,93	13,56	2,16876	6073(26)	0,266(6)	Included	0,060088	 	 	0,017897	0,047942	0,073977	0,062671	-1683,800000	-0,046353	29856,950000	0,003632
3	Cr2O3 0 0 12	85,236(7)	0,96(2)	30,97	12,87	1,13763	29(1)	0,1(1)	Included	1,061832	 	 	0,153711	0,961129	0,086930	0,073641	1796,177000	0,454436	119,827100	0,474698
4	Al2O3 0 0 12	90,67249(9)	0,0709(3)	658,23	16,67	1,08303	7088(26)	0,581(5)	Included	0,092865	 	 	0,057479	0,051520	0,090989	0,077078	-3747,245000	-0,024723	39704,710000	0,001364

Note: README.md
# Methods
## RSM analysis

Check out [doc](documentation/RSM.md)

File: W6856c_absolute_2th-om_10-130deg_PIXscan_17min_4.xy
10.0035 27.0
10.4072 24.0
10.811 22.0
11.2147 18.0
11.6185 15.0
12.0222 15.0
12.426 22.0
12.8298 17.0
13.2335 16.0
13.6373 19.0
14.041 13.0
14.4448 15.0
14.8485 15.0
15.2523 11.0
15.656 14.0
16.0598 13.0
16.4636 18.0
16.8673 19.0
17.2711 18.0
17.6748 14.0
18.0786 18.0
18.4823 14.0
18.8861 17.0
19.2899 12.0
19.6936 22.0
20.0974 12.0
20.5011 12.0
20.9049 13.0
21.3086 7.0
21.7124 11.0
22.1161 12.0
22.5199 14.0
22.9237 8.0
23.3274 4.0
23.7312 9.0
24.1349 9.0
24.5387 11.0
24.9424 4.0
25.3462 16.0
25.75 15.0
26.1537 9.0
26.5575 8.0
26.9612 7.0
27.365 10.0
27.7687 6.0
28.1725 15.0
28.5762 11.0
28.98 12.0
29.3838 10.0
29.7875 9.0
30.1913 10.0
30.595 7.0
30.9988 10.0
31.4025 5.0
31.8063 4.0
32.2101 13.0
32.6138 8.0
33.0176 8.0
33.4213 15.0
33.8251 13.0
34.2288 8.0
34.6326 12.0
35.0363 9.0
35.4401 7.0
35.8439 7.0
36.2476 6.0
36.6514 3.0
37.0551 5.0
37.4589 13.0
37.8626 11.0
38.2664 14.0
38.6702 20.0
39.0739 65.0
39.4777 338.0
39.8814 48.0
40.2852 21.0
40.6889 13.0
41.0927 14.0
41.4964 70.0
41.9002 52.0
42.304 32.0
42.7077 22.0
43.1115 14.0
43.5152 13.0
43.919 11.0
44.3227 20.0
44.7265 10.0
45.1303 12.0
45.534 14.0
45.9378 14.0
46.3415 10.0
46.7453 9.0
47.149 8.0
47.5528 7.0
47.9565 9.0
48.3603 5.0
48.7641 9.0
49.1678 12.0
49.5716 13.0
49.9753 8.0
50.3791 11.0
50.7828 10.0
51.1866 4.0
51.5903 8.0
51.9941 13.0
52.3979 15.0
52.8016 5.0
53.2054 13.0
53.6091 11.0
54.0129 5.0
54.4166 11.0
54.8204 14.0
55.2242 7.0
55.6279 21.0
56.0317 19.0
56.4354 11.0
56.8392 14.0
57.2429 13.0
57.6467 9.0
58.0504 12.0
58.4542 7.0
58.858 11.0
59.2617 14.0
59.6655 8.0
60.0692 12.0
60.473 21.0
60.8767 13.0
61.2805 18.0
61.6843 14.0
62.088 9.0
62.4918 14.0
62.8955 8.0
63.2993 9.0
63.703 12.0
64.1068 7.0
64.5105 8.0
64.9143 8.0
65.3181 15.0
65.7218 19.0
66.1256 14.0
66.5293 9.0
66.9331 13.0
67.3368 13.0
67.7406 11.0
68.1444 14.0
68.5481 8.0
68.9519 13.0
69.3556 8.0
69.7594 12.0
70.1631 21.0
70.5669 8.0
70.9706 8.0
71.3744 12.0
71.7782 13.0
72.1819 9.0
72.5857 13.0
72.9894 9.0
73.3932 9.0
73.7969 10.0
74.2007 13.0
74.6045 10.0
75.0082 13.0
75.412 14.0
75.8157 13.0
76.2195 6.0
76.6232 8.0
77.027 10.0
77.4307 14.0
77.8345 5.0
78.2383 13.0
78.642 12.0
79.0458 13.0
79.4495 10.0
79.8533 12.0
80.257 13.0
80.6608 10.0
81.0646 12.0
81.4683 9.0
81.8721 16.0
82.2758 11.0
82.6796 9.0
83.0833 15.0
83.4871 25.0
83.8908 7.0
84.2946 24.0
84.6984 17.0
85.1021 42.0
85.5059 68.0
85.9096 49.0
86.3134 11.0
86.7171 23.0
87.1209 13.0
87.5247 11.0
87.9284 9.0
88.3322 11.0
88.7359 16.0
89.1397 9.0
89.5434 16.0
89.9472 23.0
90.3509 60.0
90.7547 773.0
91.1585 93.0
91.5622 25.0
91.966 22.0
92.3697 16.0
92.7735 27.0
93.1772 17.0
93.581 14.0
93.9848 13.0
94.3885 9.0
94.7923 8.0
95.196 12.0
95.5998 16.0
96.0035 14.0
96.4073 17.0
96.811 12.0
97.2148 14.0
97.6186 13.0
98.0223 11.0
98.4261 17.0
98.8298 8.0
99.2336 13.0
99.6373 14.0
100.041 15.0
100.445 15.0
100.849 15.0
101.252 9.0
101.656 13.0
102.06 10.0
102.464 8.0
102.867 11.0
103.271 10.0
103.675 11.0
104.079 13.0
104.482 16.0
104.886 10.0
105.29 14.0
105.694 7.0
106.097 8.0
106.501 6.0
106.905 4.0
107.309 9.0
107.712 15.0
108.116 18.0
108.52 8.0
108.924 16.0
109.327 15.0
109.731 17.0
110.135 7.0
110.539 12.0
110.943 12.0
111.346 10.0
111.75 11.0
112.154 12.0
112.558 12.0
112.961 13.0
113.365 15.0
113.769 8.0
114.173 12.0
114.576 10.0
114.98 12.0
115.384 9.0
115.788 14.0
116.191 9.0
116.595 14.0
116.999 10.0
117.403 11.0
117.806 12.0
118.21 6.0
118.614 12.0
119.018 8.0
119.421 11.0
119.825 11.0
120.229 13.0
120.633 9.0
121.036 15.0
121.44 8.0
121.844 8.0
122.248 7.0
122.651 10.0
123.055 10.0
123.459 8.0
123.863 8.0
124.266 11.0
124.67 14.0
125.074 13.0
125.478 10.0
125.881 9.0
126.285 9.0
126.689 15.0
127.093 9.0
127.497 23.0
127.9 8.0
128.304 13.0
128.708 17.0
129.112 13.0
129.515 9.0
129.919 18.0
129.998 9.0