Folder: DataAnalysis/data/W6932a/XRD_2ThetaOmega

Note: data/W6932a/XRD_2ThetaOmega/W6932a_peaks.TXT
No.	Label	Pos. [°2Th.]	FWHM Left [°2Th.]	Area [cts*°2Th.]	Backgr.[cts]	d-spacing [Å]	Height [cts]	Shape Left	Status	Integral Breadth [°2Th.]	FWHM Right [°2Th.]	Shape Right	Obs. Lorentz B [°2Th.]	Obs. Gauss B [°2Th.]	Instr. Lorentz B [°2Th.]	Instr. Gauss B [°2Th.]	Crystallite Size [Å]	Micro Strain [%]	Crystallite Size only [Å]	Micro Strain only [%]
1	Cr2O3 1 1 0	36,0358(1)	0,1120(4)	1856,39	132,31	2,49035	13020(37)	0,508(4)	Included	0,142581	 	 	0,078067	0,087312	0,073949	0,062647	22541,980000	0,081586	1462,872000	0,085118
2	Al2O3 1 1 0	37,72334(1)	0,03309(3)	10760,59	143,49	2,38273	259007(230)	0,472(1)	Included	0,041546	 	 	0,021267	0,026593	0,073930	0,062631	-1771,235000	-0,072424	29494,000000	0,004039

Note: README.md
# Methods
## RSM analysis

Check out [doc](documentation/RSM.md)

File: scan_2th-om_a_Cr2O3_30-40deg_PIXscan_4min.xy
30.0025 79.0
30.0369 74.0
30.0714 58.0
30.1059 60.0
30.1403 69.0
30.1748 74.0
30.2093 75.0
30.2437 70.0
30.2782 61.0
30.3127 54.0
30.3471 68.0
30.3816 60.0
30.4161 59.0
30.4505 63.0
30.485 53.0
30.5195 67.0
30.5539 78.0
30.5884 61.0
30.6229 68.0
30.6573 80.0
30.6918 51.0
30.7263 57.0
30.7607 65.0
30.7952 71.0
30.8297 55.0
30.8641 71.0
30.8986 68.0
30.9331 60.0
30.9675 66.0
31.002 72.0
31.0365 73.0
31.0709 71.0
31.1054 64.0
31.1399 61.0
31.1743 61.0
31.2088 55.0
31.2433 58.0
31.2777 54.0
31.3122 66.0
31.3467 68.0
31.3811 73.0
31.4156 57.0
31.4501 75.0
31.4845 52.0
31.519 78.0
31.5535 66.0
31.5879 60.0
31.6224 74.0
31.6569 77.0
31.6913 71.0
31.7258 75.0
31.7603 56.0
31.7947 64.0
31.8292 70.0
31.8637 67.0
31.8981 48.0
31.9326 81.0
31.9671 60.0
32.0015 75.0
32.036 48.0
32.0705 70.0
32.1049 65.0
32.1394 59.0
32.1739 59.0
32.2083 73.0
32.2428 70.0
32.2773 72.0
32.3118 57.0
32.3462 65.0
32.3807 89.0
32.4152 88.0
32.4496 115.0
32.4841 102.0
32.5186 92.0
32.553 79.0
32.5875 68.0
32.622 72.0
32.6564 53.0
32.6909 69.0
32.7254 61.0
32.7598 76.0
32.7943 69.0
32.8288 74.0
32.8632 58.0
32.8977 82.0
32.9322 82.0
32.9666 76.0
33.0011 65.0
33.0356 83.0
33.07 67.0
33.1045 65.0
33.139 72.0
33.1734 76.0
33.2079 62.0
33.2424 64.0
33.2768 71.0
33.3113 67.0
33.3458 82.0
33.3802 60.0
33.4147 63.0
33.4492 97.0
33.4836 88.0
33.5181 72.0
33.5526 73.0
33.587 67.0
33.6215 50.0
33.656 64.0
33.6904 68.0
33.7249 45.0
33.7594 67.0
33.7938 63.0
33.8283 65.0
33.8628 75.0
33.8972 85.0
33.9317 166.0
33.9662 865.0
34.0006 199.0
34.0351 103.0
34.0696 70.0
34.104 78.0
34.1385 77.0
34.173 61.0
34.2074 82.0
34.2419 72.0
34.2764 85.0
34.3108 85.0
34.3453 76.0
34.3798 86.0
34.4142 76.0
34.4487 82.0
34.4832 77.0
34.5176 76.0
34.5521 79.0
34.5866 82.0
34.621 71.0
34.6555 90.0
34.69 70.0
34.7244 93.0
34.7589 95.0
34.7934 95.0
34.8278 94.0
34.8623 78.0
34.8968 79.0
34.9312 73.0
34.9657 109.0
35.0002 76.0
35.0346 91.0
35.0691 88.0
35.1036 106.0
35.138 94.0
35.1725 109.0
35.207 107.0
35.2414 112.0
35.2759 133.0
35.3104 116.0
35.3448 124.0
35.3793 138.0
35.4138 118.0
35.4482 133.0
35.4827 154.0
35.5172 175.0
35.5516 160.0
35.5861 179.0
35.6206 177.0
35.655 217.0
35.6895 212.0
35.724 275.0
35.7584 302.0
35.7929 437.0
35.8274 532.0
35.8619 889.0
35.8963 1282.0
35.9308 2384.0
35.9653 4870.0
35.9997 10567.0
36.0342 14830.0
36.0687 12312.0
36.1031 10516.0
36.1376 8950.0
36.1721 5115.0
36.2065 2737.0
36.241 1498.0
36.2755 971.0
36.3099 678.0
36.3444 489.0
36.3789 418.0
36.4133 343.0
36.4478 285.0
36.4823 276.0
36.5167 212.0
36.5512 200.0
36.5857 200.0
36.6201 190.0
36.6546 193.0
36.6891 182.0
36.7235 199.0
36.758 173.0
36.7925 182.0
36.8269 190.0
36.8614 181.0
36.8959 204.0
36.9303 212.0
36.9648 264.0
36.9993 280.0
37.0337 275.0
37.0682 334.0
37.1027 301.0
37.1371 284.0
37.1716 311.0
37.2061 324.0
37.2405 349.0
37.275 380.0
37.3095 454.0
37.3439 484.0
37.3784 529.0
37.4129 602.0
37.4473 679.0
37.4818 821.0
37.5163 1365.0
37.5507 2355.0
37.5852 2405.0
37.6197 2628.0
37.6541 5532.0
37.6886 23952.0
37.7231 253640.0
37.7575 28869.0
37.792 25099.0
37.8265 116570.0
37.8609 10899.0
37.8954 3294.0
37.9299 1863.0
37.9643 1296.0
37.9988 972.0
38.0333 763.0
38.0677 662.0
38.1022 609.0
38.1367 517.0
38.1711 422.0
38.2056 379.0
38.2401 328.0
38.2745 284.0
38.309 207.0
38.3435 197.0
38.3779 211.0
38.4124 177.0
38.4469 179.0
38.4813 149.0
38.5158 160.0
38.5503 136.0
38.5847 141.0
38.6192 115.0
38.6537 116.0
38.6881 114.0
38.7226 95.0
38.7571 83.0
38.7915 118.0
38.826 96.0
38.8605 100.0
38.8949 100.0
38.9294 105.0
38.9639 82.0
38.9983 91.0
39.0328 101.0
39.0673 83.0
39.1017 90.0
39.1362 79.0
39.1707 82.0
39.2051 95.0
39.2396 82.0
39.2741 89.0
39.3085 79.0
39.343 80.0
39.3775 81.0
39.412 96.0
39.4464 66.0
39.4809 82.0
39.5154 95.0
39.5498 78.0
39.5843 78.0
39.6188 77.0
39.6532 86.0
39.6877 81.0
39.7222 66.0
39.7566 64.0
39.7911 69.0
39.8256 66.0
39.86 72.0
39.8945 69.0
39.929 66.0
39.9634 72.0
39.9979 71.0