Folder: DataAnalysis/data/W6932a/XRD_Omega

Note: data/W6932a/XRD_Omega/W6932a_omega_peaks.TXT
No.	Label	Pos. [記mega]	FWHM Left [記mega]	Area [cts*記mega]	Backgr.[cts]	d-spacing [魔	Height [cts]	Shape Left	Status	Integral Breadth [記mega]	FWHM Right [記mega]	Shape Right	Obs. Lorentz B [記mega]	Obs. Gauss B [記mega]	Instr. Lorentz B [記mega]	Instr. Gauss B [記mega]	Crystallite Size [魔	Micro Strain [%]	Crystallite Size only [魔	Micro Strain only [%]
1	Cr2O3 1 1 0	18,0578(7)	1,026(3)	2893,71	217,84	 	2036(4)	0,718(4)	Included	1,421310	 	 	1,063956	0,625260	0,075431	0,063898	90,414710	1,707928	65,068780	3,771749

Note: README.md
# Methods
## RSM analysis

Check out [doc](documentation/RSM.md)

File: film_a_scan_omega_4deg_step_0.005deg0.xy
16.10060 247.0
16.11560 255.0
16.13060 266.0
16.14560 281.0
16.16060 247.0
16.17560 257.0
16.19060 284.0
16.20560 304.0
16.22060 310.0
16.23560 299.0
16.25060 246.0
16.26560 322.0
16.28060 294.0
16.29560 308.0
16.31060 319.0
16.32560 306.0
16.34060 333.0
16.35560 379.0
16.37060 366.0
16.38560 341.0
16.40060 290.0
16.41560 365.0
16.43060 374.0
16.44560 373.0
16.46060 393.0
16.47560 393.0
16.49060 402.0
16.50560 379.0
16.52060 409.0
16.53560 433.0
16.55060 436.0
16.56560 414.0
16.58060 444.0
16.59560 463.0
16.61060 446.0
16.62560 460.0
16.64060 484.0
16.65560 461.0
16.67060 478.0
16.68560 486.0
16.70060 479.0
16.71560 523.0
16.73060 548.0
16.74560 594.0
16.76060 557.0
16.77560 593.0
16.79060 560.0
16.80560 622.0
16.82060 617.0
16.83560 617.0
16.85060 609.0
16.86560 613.0
16.88060 607.0
16.89560 669.0
16.91060 652.0
16.92560 654.0
16.94060 718.0
16.95560 672.0
16.97060 661.0
16.98560 700.0
17.00060 714.0
17.01560 766.0
17.03060 779.0
17.04560 760.0
17.06060 901.0
17.07560 786.0
17.09060 833.0
17.10560 821.0
17.12060 888.0
17.13560 898.0
17.15060 933.0
17.16560 943.0
17.18060 957.0
17.19560 981.0
17.21060 1003.0
17.22560 1033.0
17.24060 1026.0
17.25560 1050.0
17.27060 1050.0
17.28560 1128.0
17.30060 1144.0
17.31560 1210.0
17.33060 1148.0
17.34560 1256.0
17.36060 1267.0
17.37560 1271.0
17.39060 1392.0
17.40560 1343.0
17.42060 1363.0
17.43560 1395.0
17.45060 1387.0
17.46560 1446.0
17.48060 1479.0
17.49560 1549.0
17.51060 1639.0
17.52560 1649.0
17.54060 1643.0
17.55560 1628.0
17.57060 1720.0
17.58560 1755.0
17.60060 1924.0
17.61560 1922.0
17.63060 1919.0
17.64560 1919.0
17.66060 1968.0
17.67560 2054.0
17.69060 2055.0
17.70560 2111.0
17.72060 2189.0
17.73560 2175.0
17.75060 2269.0
17.76560 2259.0
17.78060 2378.0
17.79560 2320.0
17.81060 2498.0
17.82560 2518.0
17.84060 2665.0
17.85560 2652.0
17.87060 2637.0
17.88560 2722.0
17.90060 2786.0
17.91560 2887.0
17.93060 2866.0
17.94560 2950.0
17.96060 3090.0
17.97560 3237.0
17.99060 3382.0
18.00560 3360.0
18.02060 3658.0
18.03560 3807.0
18.05060 4199.0
18.06560 4619.0
18.08060 4419.0
18.09560 4025.0
18.11060 4163.0
18.12560 4013.0
18.14060 3628.0
18.15560 3496.0
18.17060 3469.0
18.18560 3334.0
18.20060 3249.0
18.21560 3035.0
18.23060 2857.0
18.24560 2822.0
18.26060 2721.0
18.27560 2840.0
18.29060 2614.0
18.30560 2644.0
18.32060 2543.0
18.33560 2511.0
18.35060 2346.0
18.36560 2345.0
18.38060 2354.0
18.39560 2209.0
18.41060 2213.0
18.42560 2147.0
18.44060 2084.0
18.45560 1981.0
18.47060 1989.0
18.48560 1938.0
18.50060 1963.0
18.51560 1949.0
18.53060 1876.0
18.54560 1811.0
18.56060 1690.0
18.57560 1709.0
18.59060 1705.0
18.60560 1601.0
18.62060 1559.0
18.63560 1494.0
18.65060 1476.0
18.66560 1412.0
18.68060 1461.0
18.69560 1474.0
18.71060 1392.0
18.72560 1307.0
18.74060 1278.0
18.75560 1247.0
18.77060 1274.0
18.78560 1253.0
18.80060 1157.0
18.81560 1155.0
18.83060 1063.0
18.84560 1130.0
18.86060 1039.0
18.87560 1108.0
18.89060 1009.0
18.90560 935.0
18.92060 945.0
18.93560 1028.0
18.95060 889.0
18.96560 894.0
18.98060 844.0
18.99560 860.0
19.01060 864.0
19.02560 861.0
19.04060 822.0
19.05560 746.0
19.07060 729.0
19.08560 778.0
19.10060 723.0
19.11560 705.0
19.13060 690.0
19.14560 742.0
19.16060 660.0
19.17560 675.0
19.19060 645.0
19.20560 603.0
19.22060 629.0
19.23560 615.0
19.25060 622.0
19.26560 602.0
19.28060 576.0
19.29560 557.0
19.31060 518.0
19.32560 522.0
19.34060 570.0
19.35560 507.0
19.37060 478.0
19.38560 488.0
19.40060 538.0
19.41560 466.0
19.43060 456.0
19.44560 463.0
19.46060 457.0
19.47560 434.0
19.49060 408.0
19.50560 410.0
19.52060 429.0
19.53560 386.0
19.55060 400.0
19.56560 394.0
19.58060 402.0
19.59560 375.0
19.61060 365.0
19.62560 358.0
19.64060 368.0
19.65560 298.0
19.67060 325.0
19.68560 344.0
19.70060 314.0
19.71560 312.0
19.73060 306.0
19.74560 295.0
19.76060 301.0
19.77560 302.0
19.79060 294.0
19.80560 291.0
19.82060 282.0
19.83560 260.0
19.85060 264.0
19.86560 251.0
19.88060 260.0
19.89560 261.0
19.91060 257.0
19.92560 236.0
19.94060 237.0
19.95560 204.0
19.97060 237.0
19.98560 225.0
20.00060 213.0
20.01560 227.0
20.03060 201.0
20.04560 200.0
20.06060 188.0