Folder: DataAnalysis/data/W6854c/XRD_2ThetaOmega

Note: data/W6854c/XRD_2ThetaOmega/W6854c_peaks.TXT
No.	Label	Pos. [°2Th.]	FWHM Left [°2Th.]	Area [cts*°2Th.]	Backgr.[cts]	d-spacing [Å]	Height [cts]	Shape Left	Status	Integral Breadth [°2Th.]	FWHM Right [°2Th.]	Shape Right	Obs. Lorentz B [°2Th.]	Obs. Gauss B [°2Th.]	Instr. Lorentz B [°2Th.]	Instr. Gauss B [°2Th.]	Crystallite Size [Å]	Micro Strain [%]	Crystallite Size only [Å]	Micro Strain only [%]
1	Cr2O3 0 0 6	39,5686(8)	0,255(4)	155,73	10,63	2,27576	465(4)	0,58(1)	Included	0,334565	 	 	0,207853	0,184969	0,073937	0,062637	700,487300	0,211112	348,852200	0,326178
2	Al2O3 0 0 6	41,62061(8)	0,0515(2)	394,02	12,24	2,16818	6523(27)	0,285(5)	Included	0,060405	 	 	0,019244	0,047302	0,073977	0,062671	-1725,272000	-0,047198	29858,110000	0,003631
3	Cr2O3 0 0 12	85,354(4)	0,80(1)	49,04	14,79	1,13636	58(1)	0,00(5)	Included	0,846821	 	 	0,002071	0,846821	0,087010	0,073709	-1413,542000	0,399222	142,306400	0,399266
4	Al2O3 0 0 12	90,68178(9)	0,0713(3)	735,26	16,14	1,08294	7871(28)	0,581(5)	Included	0,093410	 	 	0,057773	0,051858	0,090997	0,077084	-3779,902000	-0,024591	39707,970000	0,001364

Note: README.md
# Methods
## RSM analysis

Check out [doc](documentation/RSM.md)

File: W6854c_absolute_2th-om_10-130deg_PIXscan_17min_2.xy
10.0035 22.0
10.4072 30.0
10.811 22.0
11.2147 18.0
11.6185 17.0
12.0222 11.0
12.426 13.0
12.8298 18.0
13.2335 22.0
13.6373 14.0
14.041 19.0
14.4448 15.0
14.8485 12.0
15.2523 15.0
15.656 15.0
16.0598 8.0
16.4636 10.0
16.8673 24.0
17.2711 20.0
17.6748 8.0
18.0786 13.0
18.4823 20.0
18.8861 15.0
19.2899 11.0
19.6936 16.0
20.0974 11.0
20.5011 26.0
20.9049 11.0
21.3086 10.0
21.7124 13.0
22.1161 9.0
22.5199 14.0
22.9237 9.0
23.3274 9.0
23.7312 10.0
24.1349 5.0
24.5387 8.0
24.9424 4.0
25.3462 8.0
25.75 10.0
26.1537 6.0
26.5575 9.0
26.9612 11.0
27.365 5.0
27.7687 7.0
28.1725 4.0
28.5762 13.0
28.98 11.0
29.3838 6.0
29.7875 8.0
30.1913 8.0
30.595 5.0
30.9988 4.0
31.4025 10.0
31.8063 17.0
32.2101 9.0
32.6138 5.0
33.0176 11.0
33.4213 10.0
33.8251 6.0
34.2288 12.0
34.6326 11.0
35.0363 8.0
35.4401 10.0
35.8439 12.0
36.2476 1.0
36.6514 6.0
37.0551 8.0
37.4589 21.0
37.8626 9.0
38.2664 9.0
38.6702 10.0
39.0739 41.0
39.4777 367.0
39.8814 85.0
40.2852 24.0
40.6889 14.0
41.0927 13.0
41.4964 71.0
41.9002 36.0
42.304 24.0
42.7077 20.0
43.1115 14.0
43.5152 9.0
43.919 12.0
44.3227 22.0
44.7265 15.0
45.1303 12.0
45.534 10.0
45.9378 13.0
46.3415 10.0
46.7453 7.0
47.149 15.0
47.5528 8.0
47.9565 4.0
48.3603 7.0
48.7641 8.0
49.1678 10.0
49.5716 16.0
49.9753 8.0
50.3791 6.0
50.7828 8.0
51.1866 11.0
51.5903 4.0
51.9941 13.0
52.3979 6.0
52.8016 8.0
53.2054 8.0
53.6091 10.0
54.0129 11.0
54.4166 11.0
54.8204 10.0
55.2242 7.0
55.6279 11.0
56.0317 11.0
56.4354 14.0
56.8392 13.0
57.2429 14.0
57.6467 10.0
58.0504 12.0
58.4542 2.0
58.858 12.0
59.2617 12.0
59.6655 17.0
60.0692 12.0
60.473 8.0
60.8767 8.0
61.2805 5.0
61.6843 4.0
62.088 8.0
62.4918 12.0
62.8955 12.0
63.2993 6.0
63.703 13.0
64.1068 8.0
64.5105 8.0
64.9143 9.0
65.3181 13.0
65.7218 7.0
66.1256 8.0
66.5293 18.0
66.9331 5.0
67.3368 9.0
67.7406 15.0
68.1444 11.0
68.5481 10.0
68.9519 10.0
69.3556 11.0
69.7594 8.0
70.1631 10.0
70.5669 15.0
70.9706 10.0
71.3744 13.0
71.7782 6.0
72.1819 10.0
72.5857 25.0
72.9894 20.0
73.3932 13.0
73.7969 12.0
74.2007 10.0
74.6045 12.0
75.0082 15.0
75.412 12.0
75.8157 10.0
76.2195 9.0
76.6232 7.0
77.027 11.0
77.4307 7.0
77.8345 12.0
78.2383 11.0
78.642 8.0
79.0458 13.0
79.4495 9.0
79.8533 15.0
80.257 7.0
80.6608 15.0
81.0646 14.0
81.4683 11.0
81.8721 18.0
82.2758 8.0
82.6796 10.0
83.0833 14.0
83.4871 7.0
83.8908 11.0
84.2946 20.0
84.6984 27.0
85.1021 59.0
85.5059 110.0
85.9096 57.0
86.3134 20.0
86.7171 18.0
87.1209 16.0
87.5247 14.0
87.9284 14.0
88.3322 15.0
88.7359 18.0
89.1397 16.0
89.5434 26.0
89.9472 21.0
90.3509 57.0
90.7547 1046.0
91.1585 112.0
91.5622 35.0
91.966 36.0
92.3697 16.0
92.7735 22.0
93.1772 17.0
93.581 13.0
93.9848 12.0
94.3885 11.0
94.7923 19.0
95.196 12.0
95.5998 17.0
96.0035 17.0
96.4073 9.0
96.811 8.0
97.2148 13.0
97.6186 8.0
98.0223 12.0
98.4261 17.0
98.8298 16.0
99.2336 11.0
99.6373 13.0
100.041 14.0
100.445 11.0
100.849 17.0
101.252 13.0
101.656 18.0
102.06 12.0
102.464 8.0
102.867 9.0
103.271 10.0
103.675 12.0
104.079 13.0
104.482 17.0
104.886 10.0
105.29 12.0
105.694 10.0
106.097 14.0
106.501 10.0
106.905 7.0
107.309 12.0
107.712 9.0
108.116 12.0
108.52 8.0
108.924 10.0
109.327 13.0
109.731 7.0
110.135 7.0
110.539 17.0
110.943 10.0
111.346 17.0
111.75 13.0
112.154 10.0
112.558 8.0
112.961 6.0
113.365 10.0
113.769 10.0
114.173 12.0
114.576 13.0
114.98 12.0
115.384 16.0
115.788 12.0
116.191 9.0
116.595 11.0
116.999 13.0
117.403 11.0
117.806 13.0
118.21 12.0
118.614 11.0
119.018 11.0
119.421 13.0
119.825 12.0
120.229 10.0
120.633 11.0
121.036 6.0
121.44 10.0
121.844 9.0
122.248 10.0
122.651 13.0
123.055 10.0
123.459 9.0
123.863 19.0
124.266 16.0
124.67 14.0
125.074 9.0
125.478 17.0
125.881 16.0
126.285 12.0
126.689 10.0
127.093 15.0
127.497 9.0
127.9 15.0
128.304 11.0
128.708 10.0
129.112 17.0
129.515 7.0
129.919 8.0
129.998 12.0