Folder: DataAnalysis/data/W6854c/XRD_Omega

Note: data/W6854c/XRD_Omega/W6854c_omega_peaks.TXT
No.	Label	Pos. [記mega]	FWHM Left [記mega]	Area [cts*記mega]	Backgr.[cts]	d-spacing [魔	Height [cts]	Shape Left	Status	Integral Breadth [記mega]	FWHM Right [記mega]	Shape Right	Obs. Lorentz B [記mega]	Obs. Gauss B [記mega]	Instr. Lorentz B [記mega]	Instr. Gauss B [記mega]	Crystallite Size [魔	Micro Strain [%]	Crystallite Size only [魔	Micro Strain only [%]
1	Cr2O3 0 0 6	19,7893(3)	0,7495(9)	3230,32	732,42	 	3792(4)	0,197(4)	Included	0,851956	 	 	0,190785	0,724210	0,075195	0,063699	775,173700	1,804550	112,495000	1,992408

Note: README.md
# Methods
## RSM analysis

Check out [doc](documentation/RSM.md)

File: W6854c_Cr2O3_scan_omega_2deg_step_0.002deg0_20.xy
18.82260 806.0
18.83060 889.0
18.83860 866.0
18.84660 933.0
18.85460 879.0
18.86260 934.0
18.87060 933.0
18.87860 974.0
18.88660 930.0
18.89460 925.0
18.90260 964.0
18.91060 1032.0
18.91860 950.0
18.92660 993.0
18.93460 1029.0
18.94260 1066.0
18.95060 1055.0
18.95860 1089.0
18.96660 1176.0
18.97460 1178.0
18.98260 1089.0
18.99060 1201.0
18.99860 1209.0
19.00660 1191.0
19.01460 1188.0
19.02260 1249.0
19.03060 1315.0
19.03860 1350.0
19.04660 1309.0
19.05460 1324.0
19.06260 1380.0
19.07060 1400.0
19.07860 1368.0
19.08660 1418.0
19.09460 1449.0
19.10260 1439.0
19.11060 1500.0
19.11860 1519.0
19.12660 1623.0
19.13460 1596.0
19.14260 1605.0
19.15060 1690.0
19.15860 1698.0
19.16660 1784.0
19.17460 1708.0
19.18260 1822.0
19.19060 1883.0
19.19860 2029.0
19.20660 1965.0
19.21460 1937.0
19.22260 2084.0
19.23060 2112.0
19.23860 2135.0
19.24660 2135.0
19.25460 2145.0
19.26260 2312.0
19.27060 2241.0
19.27860 2311.0
19.28660 2239.0
19.29460 2445.0
19.30260 2477.0
19.31060 2529.0
19.31860 2743.0
19.32660 2631.0
19.33460 2704.0
19.34260 2809.0
19.35060 2857.0
19.35860 2889.0
19.36660 3002.0
19.37460 3009.0
19.38260 2981.0
19.39060 3161.0
19.39860 3188.0
19.40660 3233.0
19.41460 3427.0
19.42260 3457.0
19.43060 3487.0
19.43860 3622.0
19.44660 3696.0
19.45460 3638.0
19.46260 3759.0
19.47060 3869.0
19.47860 3966.0
19.48660 3978.0
19.49460 4173.0
19.50260 4271.0
19.51060 4211.0
19.51860 4270.0
19.52660 4432.0
19.53460 4565.0
19.54260 4448.0
19.55060 4651.0
19.55860 4739.0
19.56660 4741.0
19.57460 5019.0
19.58260 5095.0
19.59060 5110.0
19.59860 5210.0
19.60660 5266.0
19.61460 5298.0
19.62260 5490.0
19.63060 5514.0
19.63860 5579.0
19.64660 5552.0
19.65460 5678.0
19.66260 5726.0
19.67060 5620.0
19.67860 5983.0
19.68660 5989.0
19.69460 6123.0
19.70260 6000.0
19.71060 6250.0
19.71860 6179.0
19.72660 6049.0
19.73460 6440.0
19.74260 6331.0
19.75060 6400.0
19.75860 6438.0
19.76660 6443.0
19.77460 6622.0
19.78260 6716.0
19.79060 6538.0
19.79860 6611.0
19.80660 6566.0
19.81460 6500.0
19.82260 6629.0
19.83060 6539.0
19.83860 6630.0
19.84660 6546.0
19.85460 6634.0
19.86260 6479.0
19.87060 6456.0
19.87860 6418.0
19.88660 6414.0
19.89460 6472.0
19.90260 6336.0
19.91060 6405.0
19.91860 6228.0
19.92660 6204.0
19.93460 6066.0
19.94260 6145.0
19.95060 5862.0
19.95860 5740.0
19.96660 5683.0
19.97460 5725.0
19.98260 5572.0
19.99060 5509.0
19.99860 5393.0
20.00660 5216.0
20.01460 5199.0
20.02260 5084.0
20.03060 5047.0
20.03860 4862.0
20.04660 4808.0
20.05460 4662.0
20.06260 4739.0
20.07060 4453.0
20.07860 4431.0
20.08660 4330.0
20.09460 4191.0
20.10260 4199.0
20.11060 4091.0
20.11860 4101.0
20.12660 4002.0
20.13460 3947.0
20.14260 3751.0
20.15060 3840.0
20.15860 3668.0
20.16660 3572.0
20.17460 3555.0
20.18260 3497.0
20.19060 3339.0
20.19860 3281.0
20.20660 3191.0
20.21460 3104.0
20.22260 3130.0
20.23060 3028.0
20.23860 2951.0
20.24660 2878.0
20.25460 2712.0
20.26260 2695.0
20.27060 2628.0
20.27860 2600.0
20.28660 2636.0
20.29460 2503.0
20.30260 2428.0
20.31060 2460.0
20.31860 2359.0
20.32660 2266.0
20.33460 2247.0
20.34260 2187.0
20.35060 2084.0
20.35860 2096.0
20.36660 2104.0
20.37460 2003.0
20.38260 1988.0
20.39060 1851.0
20.39860 1909.0
20.40660 1929.0
20.41460 1841.0
20.42260 1788.0
20.43060 1830.0
20.43860 1709.0
20.44660 1686.0
20.45460 1641.0
20.46260 1546.0
20.47060 1430.0
20.47860 1400.0
20.48660 1333.0
20.49460 1296.0
20.50260 1259.0
20.51060 1294.0
20.51860 1198.0
20.52660 1210.0
20.53460 1147.0
20.54260 1083.0
20.55060 1160.0
20.55860 1137.0
20.56660 1146.0
20.57460 987.0
20.58260 1034.0
20.59060 1050.0
20.59860 1001.0
20.60660 945.0
20.61460 944.0
20.62260 885.0
20.63060 903.0
20.63860 923.0
20.64660 912.0
20.65460 908.0
20.66260 916.0
20.67060 893.0
20.67860 874.0
20.68660 843.0
20.69460 796.0
20.70260 801.0
20.71060 776.0
20.71860 809.0
20.72660 782.0
20.73460 764.0
20.74260 771.0
20.75060 758.0
20.75860 708.0
20.76660 767.0
20.77460 681.0
20.78260 715.0
20.79060 693.0
20.79860 653.0
20.80660 655.0