Folder: DataAnalysis/data/W6815c2/XRD_Omega

Note: data/W6815c2/XRD_Omega/W6815c2_omega_peak.TXT
No.	Label	Pos. [記mega]	FWHM Left [記mega]	Area calc.	Assignment	h	k	l	Multiplicity	F obs.	F calc.	Area [cts*記mega]	Derivation	Backgr.[cts]	d-spacing [魔	Height [cts]	K-A2 / K-A1 Ratio	Matched	Matched by	Rel. Int. [%]	Source	Status	Integral Breadth [記mega]
1	Cr2O3 0 0 6	19,3123(8)	0,52(5)	0,00	 	 	 	 	 	0,000000	0,000000	753,84	 	259,71	 	923(108)	 	False	 	100,00	Profile fitting	Included	0,816653

Note: README.md
# Methods
## RSM analysis

Check out [doc](documentation/RSM.md)

File: W6815c2_Cr2O3_scan_omega_2deg_step_0.002deg0_2_new.xy
18.31560 230.0
18.32360 274.0
18.33160 262.0
18.33960 233.0
18.34760 247.0
18.35560 306.0
18.36360 272.0
18.37160 259.0
18.37960 239.0
18.38760 263.0
18.39560 255.0
18.40360 269.0
18.41160 257.0
18.41960 252.0
18.42760 237.0
18.43560 299.0
18.44360 258.0
18.45160 255.0
18.45960 293.0
18.46760 278.0
18.47560 287.0
18.48360 289.0
18.49160 257.0
18.49960 287.0
18.50760 301.0
18.51560 291.0
18.52360 323.0
18.53160 298.0
18.53960 304.0
18.54760 312.0
18.55560 294.0
18.56360 295.0
18.57160 298.0
18.57960 313.0
18.58760 353.0
18.59560 325.0
18.60360 343.0
18.61160 327.0
18.61960 320.0
18.62760 313.0
18.63560 295.0
18.64360 351.0
18.65160 369.0
18.65960 325.0
18.66760 370.0
18.67560 383.0
18.68360 341.0
18.69160 357.0
18.69960 384.0
18.70760 397.0
18.71560 361.0
18.72360 352.0
18.73160 394.0
18.73960 431.0
18.74760 424.0
18.75560 425.0
18.76360 392.0
18.77160 466.0
18.77960 448.0
18.78760 442.0
18.79560 438.0
18.80360 442.0
18.81160 454.0
18.81960 481.0
18.82760 536.0
18.83560 513.0
18.84360 531.0
18.85160 512.0
18.85960 502.0
18.86760 486.0
18.87560 569.0
18.88360 526.0
18.89160 546.0
18.89960 584.0
18.90760 583.0
18.91560 588.0
18.92360 608.0
18.93160 553.0
18.93960 657.0
18.94760 613.0
18.95560 618.0
18.96360 646.0
18.97160 687.0
18.97960 676.0
18.98760 710.0
18.99560 703.0
19.00360 730.0
19.01160 739.0
19.01960 760.0
19.02760 797.0
19.03560 779.0
19.04360 817.0
19.05160 803.0
19.05960 817.0
19.06760 895.0
19.07560 814.0
19.08360 912.0
19.09160 959.0
19.09960 900.0
19.10760 975.0
19.11560 964.0
19.12360 957.0
19.13160 1045.0
19.13960 1092.0
19.14760 1067.0
19.15560 1162.0
19.16360 1218.0
19.17160 1194.0
19.17960 1232.0
19.18760 1289.0
19.19560 1392.0
19.20360 1373.0
19.21160 1387.0
19.21960 1554.0
19.22760 1471.0
19.23560 1590.0
19.24360 1685.0
19.25160 1583.0
19.25960 1727.0
19.26760 1689.0
19.27560 1720.0
19.28360 1735.0
19.29160 1705.0
19.29960 1711.0
19.30760 1739.0
19.31560 1701.0
19.32360 1647.0
19.33160 1627.0
19.33960 1679.0
19.34760 1627.0
19.35560 1643.0
19.36360 1557.0
19.37160 1630.0
19.37960 1533.0
19.38760 1574.0
19.39560 1520.0
19.40360 1515.0
19.41160 1471.0
19.41960 1440.0
19.42760 1492.0
19.43560 1412.0
19.44360 1348.0
19.45160 1273.0
19.45960 1392.0
19.46760 1288.0
19.47560 1297.0
19.48360 1260.0
19.49160 1258.0
19.49960 1184.0
19.50760 1172.0
19.51560 1159.0
19.52360 1197.0
19.53160 1131.0
19.53960 1099.0
19.54760 996.0
19.55560 1028.0
19.56360 1038.0
19.57160 1019.0
19.57960 1074.0
19.58760 1031.0
19.59560 976.0
19.60360 889.0
19.61160 975.0
19.61960 947.0
19.62760 851.0
19.63560 854.0
19.64360 891.0
19.65160 846.0
19.65960 844.0
19.66760 794.0
19.67560 821.0
19.68360 840.0
19.69160 793.0
19.69960 808.0
19.70760 732.0
19.71560 775.0
19.72360 766.0
19.73160 717.0
19.73960 721.0
19.74760 698.0
19.75560 710.0
19.76360 692.0
19.77160 724.0
19.77960 741.0
19.78760 834.0
19.79560 954.0
19.80360 852.0
19.81160 852.0
19.81960 800.0
19.82760 690.0
19.83560 686.0
19.84360 668.0
19.85160 679.0
19.85960 653.0
19.86760 605.0
19.87560 622.0
19.88360 548.0
19.89160 561.0
19.89960 574.0
19.90760 549.0
19.91560 523.0
19.92360 520.0
19.93160 519.0
19.93960 534.0
19.94760 486.0
19.95560 520.0
19.96360 492.0
19.97160 475.0
19.97960 465.0
19.98760 392.0
19.99560 409.0
20.00360 410.0
20.01160 453.0
20.01960 403.0
20.02760 381.0
20.03560 401.0
20.04360 390.0
20.05160 366.0
20.05960 383.0
20.06760 378.0
20.07560 373.0
20.08360 372.0
20.09160 342.0
20.09960 335.0
20.10760 327.0
20.11560 337.0
20.12360 313.0
20.13160 338.0
20.13960 332.0
20.14760 351.0
20.15560 324.0
20.16360 328.0
20.17160 296.0
20.17960 297.0
20.18760 337.0
20.19560 298.0
20.20360 319.0
20.21160 302.0
20.21960 284.0
20.22760 294.0
20.23560 318.0
20.24360 309.0
20.25160 286.0
20.25960 304.0
20.26760 324.0
20.27560 293.0
20.28360 310.0
20.29160 276.0
20.29960 280.0

File: W6815c2_Omega-Scan_2deg_0.002_0_6.xy
18.80830 396.0
18.81630 386.0
18.82430 413.0
18.83230 453.0
18.84030 410.0
18.84830 443.0
18.85630 470.0
18.86430 448.0
18.87230 463.0
18.88030 467.0
18.88830 466.0
18.89630 514.0
18.90430 504.0
18.91230 493.0
18.92030 490.0
18.92830 500.0
18.93630 541.0
18.94430 520.0
18.95230 545.0
18.96030 565.0
18.96830 570.0
18.97630 601.0
18.98430 613.0
18.99230 624.0
19.00030 655.0
19.00830 645.0
19.01630 639.0
19.02430 676.0
19.03230 735.0
19.04030 745.0
19.04830 740.0
19.05630 741.0
19.06430 778.0
19.07230 792.0
19.08030 772.0
19.08830 819.0
19.09630 821.0
19.10430 929.0
19.11230 941.0
19.12030 937.0
19.12830 960.0
19.13630 1001.0
19.14430 1020.0
19.15230 1150.0
19.16030 1114.0
19.16830 1207.0
19.17630 1258.0
19.18430 1267.0
19.19230 1283.0
19.20030 1325.0
19.20830 1470.0
19.21630 1428.0
19.22430 1473.0
19.23230 1513.0
19.24030 1679.0
19.24830 1679.0
19.25630 1668.0
19.26430 1738.0
19.27230 1637.0
19.28030 1702.0
19.28830 1721.0
19.29630 1681.0
19.30430 1709.0
19.31230 1668.0
19.32030 1619.0
19.32830 1683.0
19.33630 1580.0
19.34430 1606.0
19.35230 1542.0
19.36030 1569.0
19.36830 1575.0
19.37630 1580.0
19.38430 1584.0
19.39230 1474.0
19.40030 1403.0
19.40830 1453.0
19.41630 1489.0
19.42430 1419.0
19.43230 1417.0
19.44030 1383.0
19.44830 1417.0
19.45630 1309.0
19.46430 1363.0
19.47230 1257.0
19.48030 1267.0
19.48830 1247.0
19.49630 1156.0
19.50430 1238.0
19.51230 1128.0
19.52030 1166.0
19.52830 1109.0
19.53630 1041.0
19.54430 1084.0
19.55230 1042.0
19.56030 1011.0
19.56830 976.0
19.57630 1013.0
19.58430 948.0
19.59230 993.0
19.60030 963.0
19.60830 945.0
19.61630 956.0
19.62430 926.0
19.63230 912.0
19.64030 880.0
19.64830 838.0
19.65630 823.0
19.66430 820.0
19.67230 766.0
19.68030 749.0
19.68830 797.0
19.69630 763.0
19.70430 742.0
19.71230 748.0
19.72030 683.0
19.72830 718.0
19.73630 681.0
19.74430 708.0
19.75230 708.0
19.76030 679.0
19.76830 671.0
19.77630 750.0
19.78430 799.0
19.79230 903.0
19.80030 892.0
19.80830 833.0
19.81630 769.0
19.82430 665.0
19.83230 694.0
19.84030 616.0
19.84830 684.0
19.85630 639.0
19.86430 615.0
19.87230 608.0
19.88030 576.0
19.88830 597.0
19.89630 584.0
19.90430 537.0
19.91230 523.0
19.92030 515.0
19.92830 550.0
19.93630 511.0
19.94430 523.0
19.95230 517.0
19.96030 550.0
19.96830 528.0
19.97630 502.0
19.98430 506.0
19.99230 438.0
20.00030 407.0
20.00830 442.0
20.01630 431.0
20.02430 425.0
20.03230 418.0
20.04030 415.0
20.04830 395.0
20.05630 364.0
20.06430 368.0
20.07230 371.0
20.08030 372.0
20.08830 390.0
20.09630 388.0
20.10430 348.0
20.11230 375.0
20.12030 371.0
20.12830 385.0
20.13630 393.0
20.14430 310.0
20.15230 357.0
20.16030 365.0
20.16830 353.0
20.17630 344.0
20.18430 344.0
20.19230 356.0
20.20030 326.0
20.20830 338.0
20.21630 324.0
20.22430 350.0
20.23230 337.0
20.24030 330.0
20.24830 325.0
20.25630 296.0
20.26430 311.0
20.27230 314.0
20.28030 303.0
20.28830 325.0
20.29630 305.0
20.30430 324.0
20.31230 326.0
20.32030 335.0
20.32830 316.0
20.33630 322.0
20.34430 332.0
20.35230 338.0
20.36030 313.0
20.36830 323.0
20.37630 338.0
20.38430 321.0
20.39230 296.0
20.40030 293.0
20.40830 286.0
20.41630 261.0
20.42430 252.0
20.43230 249.0
20.44030 262.0
20.44830 269.0
20.45630 259.0
20.46430 232.0
20.47230 252.0
20.48030 223.0
20.48830 219.0
20.49630 219.0
20.50430 221.0
20.51230 238.0
20.52030 235.0
20.52830 229.0
20.53630 207.0
20.54430 227.0
20.55230 220.0
20.56030 211.0
20.56830 211.0
20.57630 212.0
20.58430 226.0
20.59230 232.0
20.60030 217.0
20.60830 256.0
20.61630 221.0
20.62430 198.0
20.63230 215.0
20.64030 187.0
20.64830 178.0
20.65630 220.0
20.66430 210.0
20.67230 219.0
20.68030 224.0
20.68830 210.0
20.69630 222.0
20.70430 208.0
20.71230 221.0
20.72030 215.0
20.72830 218.0
20.73630 224.0
20.74430 194.0
20.75230 215.0
20.76030 210.0
20.76830 234.0
20.77630 207.0
20.78430 186.0
20.79230 192.0