Folder: DataAnalysis/data/W6857c/XRD_Omega

Note: data/W6857c/XRD_Omega/W6857c_omega_peaks.TXT
No.	Label	Pos. [記mega]	FWHM Left [記mega]	Area [cts*記mega]	Backgr.[cts]	d-spacing [魔	Height [cts]	Shape Left	Status	Integral Breadth [記mega]	FWHM Right [記mega]	Shape Right	Obs. Lorentz B [記mega]	Obs. Gauss B [記mega]	Instr. Lorentz B [記mega]	Instr. Gauss B [記mega]	Crystallite Size [魔	Micro Strain [%]	Crystallite Size only [魔	Micro Strain only [%]
1	Cr2O3 0 0 6	19,3033(7)	0,295(3)	353,16	53,66	 	763(6)	1,00(2)	Included	0,462913	 	 	0,460741	0,007818	0,075259	0,063753	232,273100	-0,162337	232,257500	0,989093

Note: README.md
# Methods
## RSM analysis

Check out [doc](documentation/RSM.md)

File: w6857c_scan_omega_4deg_step_0.005deg0_C5.xy
17.33600 34.0
17.35100 45.0
17.36600 48.0
17.38100 41.0
17.39600 42.0
17.41100 34.0
17.42600 51.0
17.44100 50.0
17.45600 41.0
17.47100 58.0
17.48600 44.0
17.50100 56.0
17.51600 48.0
17.53100 39.0
17.54600 54.0
17.56100 36.0
17.57600 42.0
17.59100 56.0
17.60600 41.0
17.62100 43.0
17.63600 51.0
17.65100 39.0
17.66600 59.0
17.68100 47.0
17.69600 51.0
17.71100 56.0
17.72600 59.0
17.74100 53.0
17.75600 40.0
17.77100 50.0
17.78600 46.0
17.80100 45.0
17.81600 53.0
17.83100 60.0
17.84600 61.0
17.86100 54.0
17.87600 58.0
17.89100 60.0
17.90600 52.0
17.92100 64.0
17.93600 53.0
17.95100 62.0
17.96600 58.0
17.98100 56.0
17.99600 41.0
18.01100 61.0
18.02600 55.0
18.04100 64.0
18.05600 54.0
18.07100 48.0
18.08600 65.0
18.10100 71.0
18.11600 63.0
18.13100 74.0
18.14600 68.0
18.16100 59.0
18.17600 68.0
18.19100 78.0
18.20600 60.0
18.22100 64.0
18.23600 60.0
18.25100 74.0
18.26600 86.0
18.28100 63.0
18.29600 77.0
18.31100 67.0
18.32600 76.0
18.34100 72.0
18.35600 61.0
18.37100 79.0
18.38600 73.0
18.40100 64.0
18.41600 74.0
18.43100 87.0
18.44600 72.0
18.46100 93.0
18.47600 92.0
18.49100 90.0
18.50600 96.0
18.52100 113.0
18.53600 99.0
18.55100 94.0
18.56600 90.0
18.58100 101.0
18.59600 95.0
18.61100 113.0
18.62600 107.0
18.64100 113.0
18.65600 109.0
18.67100 92.0
18.68600 118.0
18.70100 139.0
18.71600 146.0
18.73100 139.0
18.74600 131.0
18.76100 137.0
18.77600 148.0
18.79100 168.0
18.80600 154.0
18.82100 179.0
18.83600 167.0
18.85100 172.0
18.86600 191.0
18.88100 172.0
18.89600 185.0
18.91100 166.0
18.92600 216.0
18.94100 186.0
18.95600 200.0
18.97100 231.0
18.98600 244.0
19.00100 215.0
19.01600 241.0
19.03100 315.0
19.04600 278.0
19.06100 316.0
19.07600 334.0
19.09100 395.0
19.10600 410.0
19.12100 465.0
19.13600 487.0
19.15100 534.0
19.16600 597.0
19.18100 649.0
19.19600 743.0
19.21100 893.0
19.22600 997.0
19.24100 970.0
19.25600 1023.0
19.27100 1108.0
19.28600 1108.0
19.30100 1131.0
19.31600 1112.0
19.33100 1153.0
19.34600 1110.0
19.36100 1147.0
19.37600 1038.0
19.39100 971.0
19.40600 896.0
19.42100 867.0
19.43600 783.0
19.45100 654.0
19.46600 630.0
19.48100 582.0
19.49600 542.0
19.51100 470.0
19.52600 437.0
19.54100 440.0
19.55600 371.0
19.57100 299.0
19.58600 332.0
19.60100 290.0
19.61600 296.0
19.63100 272.0
19.64600 214.0
19.66100 241.0
19.67600 219.0
19.69100 215.0
19.70600 188.0
19.72100 204.0
19.73600 195.0
19.75100 163.0
19.76600 170.0
19.78100 176.0
19.79600 144.0
19.81100 154.0
19.82600 144.0
19.84100 124.0
19.85600 147.0
19.87100 135.0
19.88600 143.0
19.90100 137.0
19.91600 114.0
19.93100 143.0
19.94600 133.0
19.96100 114.0
19.97600 122.0
19.99100 102.0
20.00600 99.0
20.02100 103.0
20.03600 109.0
20.05100 94.0
20.06600 91.0
20.08100 91.0
20.09600 94.0
20.11100 90.0
20.12600 88.0
20.14100 88.0
20.15600 83.0
20.17100 82.0
20.18600 91.0
20.20100 89.0
20.21600 75.0
20.23100 58.0
20.24600 70.0
20.26100 64.0
20.27600 63.0
20.29100 79.0
20.30600 60.0
20.32100 68.0
20.33600 67.0
20.35100 73.0
20.36600 68.0
20.38100 68.0
20.39600 61.0
20.41100 79.0
20.42600 56.0
20.44100 42.0
20.45600 70.0
20.47100 52.0
20.48600 48.0
20.50100 56.0
20.51600 77.0
20.53100 62.0
20.54600 60.0
20.56100 51.0
20.57600 53.0
20.59100 54.0
20.60600 65.0
20.62100 51.0
20.63600 40.0
20.65100 44.0
20.66600 51.0
20.68100 52.0
20.69600 53.0
20.71100 48.0
20.72600 57.0
20.74100 57.0
20.75600 53.0
20.77100 46.0
20.78600 48.0
20.80100 45.0
20.81600 40.0
20.83100 41.0
20.84600 45.0
20.86100 53.0
20.87600 50.0
20.89100 53.0
20.90600 55.0
20.92100 43.0
20.93600 47.0
20.95100 38.0
20.96600 44.0
20.98100 36.0
20.99600 38.0
21.01100 34.0
21.02600 35.0
21.04100 35.0
21.05600 47.0
21.07100 39.0
21.08600 40.0
21.10100 43.0
21.11600 38.0
21.13100 52.0
21.14600 29.0
21.16100 43.0
21.17600 44.0
21.19100 45.0
21.20600 35.0
21.22100 34.0
21.23600 39.0
21.25100 33.0
21.26600 47.0
21.28100 37.0
21.29600 32.0