Folder: DataAnalysis/data/W6815c1/XRD_Omega

Note: data/W6815c1/XRD_Omega/W6815c1_omega_peaks.TXT
No.	Label	Pos. [記mega]	FWHM Left [記mega]	Area [cts*記mega]	Backgr.[cts]	d-spacing [魔	Height [cts]	Shape Left	Status	Integral Breadth [記mega]	FWHM Right [記mega]	Shape Right	Obs. Lorentz B [記mega]	Obs. Gauss B [記mega]	Instr. Lorentz B [記mega]	Instr. Gauss B [記mega]	Crystallite Size [魔	Micro Strain [%]	Crystallite Size only [魔	Micro Strain only [%]
1	Cr2O3 0 0 6	19,4951(8)	0,490(3)	405,37	30,51	 	632(3)	0,582(8)	Included	0,641901	 	 	0,397884	0,355637	0,075234	0,063732	277,584900	0,888678	153,806700	1,479033

Note: README.md
# Methods
## RSM analysis

Check out [doc](documentation/RSM.md)

File: scan_omega_4deg_step_0.005deg0_C2.xy
17.52360 38.0
17.53860 37.0
17.55360 40.0
17.56860 28.0
17.58360 33.0
17.59860 24.0
17.61360 37.0
17.62860 25.0
17.64360 25.0
17.65860 21.0
17.67360 29.0
17.68860 29.0
17.70360 45.0
17.71860 40.0
17.73360 38.0
17.74860 27.0
17.76360 27.0
17.77860 25.0
17.79360 45.0
17.80860 30.0
17.82360 28.0
17.83860 22.0
17.85360 37.0
17.86860 36.0
17.88360 23.0
17.89860 49.0
17.91360 23.0
17.92860 34.0
17.94360 37.0
17.95860 29.0
17.97360 29.0
17.98860 37.0
18.00360 45.0
18.01860 40.0
18.03360 51.0
18.04860 29.0
18.06360 31.0
18.07860 44.0
18.09360 45.0
18.10860 44.0
18.12360 43.0
18.13860 34.0
18.15360 34.0
18.16860 33.0
18.18360 23.0
18.19860 30.0
18.21360 33.0
18.22860 36.0
18.24360 38.0
18.25860 46.0
18.27360 43.0
18.28860 45.0
18.30360 40.0
18.31860 29.0
18.33360 51.0
18.34860 33.0
18.36360 55.0
18.37860 53.0
18.39360 45.0
18.40860 50.0
18.42360 30.0
18.43860 46.0
18.45360 47.0
18.46860 34.0
18.48360 45.0
18.49860 56.0
18.51360 56.0
18.52860 45.0
18.54360 75.0
18.55860 55.0
18.57360 62.0
18.58860 48.0
18.60360 59.0
18.61860 55.0
18.63360 72.0
18.64860 58.0
18.66360 70.0
18.67860 79.0
18.69360 68.0
18.70860 76.0
18.72360 71.0
18.73860 88.0
18.75360 62.0
18.76860 70.0
18.78360 87.0
18.79860 87.0
18.81360 91.0
18.82860 95.0
18.84360 103.0
18.85860 127.0
18.87360 108.0
18.88860 122.0
18.90360 126.0
18.91860 94.0
18.93360 133.0
18.94860 115.0
18.96360 151.0
18.97860 139.0
18.99360 167.0
19.00860 165.0
19.02360 167.0
19.03860 195.0
19.05360 213.0
19.06860 192.0
19.08360 232.0
19.09860 252.0
19.11360 250.0
19.12860 237.0
19.14360 289.0
19.15860 296.0
19.17360 284.0
19.18860 318.0
19.20360 328.0
19.21860 385.0
19.23360 410.0
19.24860 426.0
19.26360 404.0
19.27860 463.0
19.29360 473.0
19.30860 527.0
19.32360 604.0
19.33860 615.0
19.35360 685.0
19.36860 800.0
19.38360 829.0
19.39860 990.0
19.41360 1020.0
19.42860 1102.0
19.44360 1017.0
19.45860 1072.0
19.47360 1112.0
19.48860 1026.0
19.50360 1032.0
19.51860 1035.0
19.53360 962.0
19.54860 981.0
19.56360 942.0
19.57860 931.0
19.59360 817.0
19.60860 858.0
19.62360 826.0
19.63860 786.0
19.65360 694.0
19.66860 645.0
19.68360 628.0
19.69860 607.0
19.71360 555.0
19.72860 543.0
19.74360 522.0
19.75860 474.0
19.77360 452.0
19.78860 407.0
19.80360 386.0
19.81860 380.0
19.83360 376.0
19.84860 346.0
19.86360 325.0
19.87860 282.0
19.89360 309.0
19.90860 283.0
19.92360 243.0
19.93860 243.0
19.95360 222.0
19.96860 222.0
19.98360 203.0
19.99860 206.0
20.01360 200.0
20.02860 191.0
20.04360 167.0
20.05860 156.0
20.07360 161.0
20.08860 155.0
20.10360 145.0
20.11860 122.0
20.13360 130.0
20.14860 116.0
20.16360 103.0
20.17860 122.0
20.19360 112.0
20.20860 107.0
20.22360 91.0
20.23860 90.0
20.25360 78.0
20.26860 84.0
20.28360 88.0
20.29860 71.0
20.31360 69.0
20.32860 57.0
20.34360 63.0
20.35860 75.0
20.37360 65.0
20.38860 62.0
20.40360 61.0
20.41860 59.0
20.43360 70.0
20.44860 60.0
20.46360 73.0
20.47860 40.0
20.49360 58.0
20.50860 55.0
20.52360 52.0
20.53860 56.0
20.55360 49.0
20.56860 38.0
20.58360 60.0
20.59860 45.0
20.61360 43.0
20.62860 36.0
20.64360 50.0
20.65860 47.0
20.67360 37.0
20.68860 46.0
20.70360 43.0
20.71860 43.0
20.73360 40.0
20.74860 45.0
20.76360 41.0
20.77860 40.0
20.79360 43.0
20.80860 41.0
20.82360 37.0
20.83860 31.0
20.85360 33.0
20.86860 34.0
20.88360 39.0
20.89860 36.0
20.91360 39.0
20.92860 31.0
20.94360 27.0
20.95860 28.0
20.97360 30.0
20.98860 30.0
21.00360 26.0
21.01860 37.0
21.03360 21.0
21.04860 44.0
21.06360 35.0
21.07860 38.0
21.09360 33.0
21.10860 25.0
21.12360 33.0
21.13860 29.0
21.15360 39.0
21.16860 32.0
21.18360 37.0
21.19860 23.0
21.21360 42.0
21.22860 31.0
21.24360 16.0
21.25860 31.0
21.27360 31.0
21.28860 38.0
21.30360 38.0
21.31860 35.0
21.33360 36.0
21.34860 24.0
21.36360 35.0
21.37860 33.0
21.39360 22.0
21.40860 29.0
21.42360 28.0
21.43860 35.0
21.45360 32.0
21.46860 29.0
21.48360 29.0