Folder: DataAnalysis/data/W6907r/XRD_Omega

Note: data/W6907r/XRD_Omega/W6907r_omega_peaks.TXT
No.	Label	Pos. [記mega]	FWHM Left [記mega]	Area [cts*記mega]	Backgr.[cts]	d-spacing [魔	Height [cts]	Shape Left	Status	Integral Breadth [記mega]	FWHM Right [記mega]	Shape Right	Obs. Lorentz B [記mega]	Obs. Gauss B [記mega]	Instr. Lorentz B [記mega]	Instr. Gauss B [記mega]	Crystallite Size [魔	Micro Strain [%]	Crystallite Size only [魔	Micro Strain only [%]
1	Cr2O3 0 2 4	24,703(1)	1,033(4)	606,63	54,06	 	493(2)	0,331(8)	Included	1,230314	 	 	0,451308	0,920663	0,074628	0,063219	239,888800	1,830169	77,034540	2,337297

Note: README.md
# Methods
## RSM analysis

Check out [doc](documentation/RSM.md)

File: scan_omega_4deg_step_0.005deg0_C8.xy
22.76010 57.0
22.77510 71.0
22.79010 62.0
22.80510 67.0
22.82010 54.0
22.83510 72.0
22.85010 70.0
22.86510 52.0
22.88010 77.0
22.89510 79.0
22.91010 59.0
22.92510 56.0
22.94010 74.0
22.95510 74.0
22.97010 78.0
22.98510 68.0
23.00010 78.0
23.01510 89.0
23.03010 57.0
23.04510 74.0
23.06010 62.0
23.07510 78.0
23.09010 78.0
23.10510 80.0
23.12010 75.0
23.13510 88.0
23.15010 92.0
23.16510 76.0
23.18010 81.0
23.19510 69.0
23.21010 82.0
23.22510 63.0
23.24010 88.0
23.25510 77.0
23.27010 71.0
23.28510 61.0
23.30010 91.0
23.31510 88.0
23.33010 94.0
23.34510 88.0
23.36010 87.0
23.37510 67.0
23.39010 90.0
23.40510 82.0
23.42010 91.0
23.43510 95.0
23.45010 95.0
23.46510 83.0
23.48010 116.0
23.49510 106.0
23.51010 97.0
23.52510 97.0
23.54010 102.0
23.55510 114.0
23.57010 111.0
23.58510 129.0
23.60010 95.0
23.61510 112.0
23.63010 130.0
23.64510 124.0
23.66010 103.0
23.67510 130.0
23.69010 133.0
23.70510 137.0
23.72010 153.0
23.73510 148.0
23.75010 140.0
23.76510 168.0
23.78010 147.0
23.79510 161.0
23.81010 167.0
23.82510 176.0
23.84010 198.0
23.85510 182.0
23.87010 224.0
23.88510 194.0
23.90010 237.0
23.91510 200.0
23.93010 223.0
23.94510 232.0
23.96010 255.0
23.97510 238.0
23.99010 250.0
24.00510 268.0
24.02010 250.0
24.03510 248.0
24.05010 297.0
24.06510 310.0
24.08010 334.0
24.09510 359.0
24.11010 358.0
24.12510 382.0
24.14010 340.0
24.15510 391.0
24.17010 389.0
24.18510 400.0
24.20010 420.0
24.21510 397.0
24.23010 430.0
24.24510 461.0
24.26010 469.0
24.27510 482.0
24.29010 542.0
24.30510 497.0
24.32010 543.0
24.33510 572.0
24.35010 599.0
24.36510 574.0
24.38010 528.0
24.39510 583.0
24.41010 562.0
24.42510 642.0
24.44010 637.0
24.45510 615.0
24.47010 676.0
24.48510 631.0
24.50010 652.0
24.51510 665.0
24.53010 678.0
24.54510 724.0
24.56010 669.0
24.57510 788.0
24.59010 744.0
24.60510 752.0
24.62010 778.0
24.63510 763.0
24.65010 789.0
24.66510 772.0
24.68010 845.0
24.69510 813.0
24.71010 795.0
24.72510 868.0
24.74010 889.0
24.75510 835.0
24.77010 849.0
24.78510 837.0
24.80010 832.0
24.81510 836.0
24.83010 821.0
24.84510 870.0
24.86010 805.0
24.87510 817.0
24.89010 833.0
24.90510 740.0
24.92010 716.0
24.93510 724.0
24.95010 707.0
24.96510 650.0
24.98010 659.0
24.99510 668.0
25.01010 642.0
25.02510 601.0
25.04010 623.0
25.05510 570.0
25.07010 549.0
25.08510 536.0
25.10010 534.0
25.11510 519.0
25.13010 524.0
25.14510 473.0
25.16010 481.0
25.17510 484.0
25.19010 460.0
25.20510 478.0
25.22010 459.0
25.23510 392.0
25.25010 416.0
25.26510 381.0
25.28010 419.0
25.29510 373.0
25.31010 359.0
25.32510 307.0
25.34010 320.0
25.35510 318.0
25.37010 320.0
25.38510 301.0
25.40010 290.0
25.41510 301.0
25.43010 256.0
25.44510 270.0
25.46010 265.0
25.47510 266.0
25.49010 251.0
25.50510 238.0
25.52010 237.0
25.53510 199.0
25.55010 197.0
25.56510 168.0
25.58010 202.0
25.59510 182.0
25.61010 182.0
25.62510 182.0
25.64010 164.0
25.65510 171.0
25.67010 145.0
25.68510 175.0
25.70010 141.0
25.71510 157.0
25.73010 111.0
25.74510 151.0
25.76010 132.0
25.77510 111.0
25.79010 113.0
25.80510 115.0
25.82010 101.0
25.83510 115.0
25.85010 103.0
25.86510 103.0
25.88010 93.0
25.89510 91.0
25.91010 102.0
25.92510 106.0
25.94010 82.0
25.95510 82.0
25.97010 96.0
25.98510 85.0
26.00010 74.0
26.01510 77.0
26.03010 85.0
26.04510 88.0
26.06010 70.0
26.07510 92.0
26.09010 84.0
26.10510 93.0
26.12010 81.0
26.13510 81.0
26.15010 71.0
26.16510 83.0
26.18010 60.0
26.19510 78.0
26.21010 73.0
26.22510 64.0
26.24010 65.0
26.25510 69.0
26.27010 65.0
26.28510 72.0
26.30010 81.0
26.31510 65.0
26.33010 46.0
26.34510 66.0
26.36010 71.0
26.37510 61.0
26.39010 52.0
26.40510 80.0
26.42010 57.0
26.43510 67.0
26.45010 62.0
26.46510 68.0
26.48010 50.0
26.49510 56.0
26.51010 55.0
26.52510 70.0
26.54010 69.0
26.55510 53.0
26.57010 66.0
26.58510 63.0
26.60010 59.0
26.61510 66.0
26.63010 65.0
26.64510 71.0
26.66010 63.0
26.67510 52.0
26.69010 62.0
26.70510 76.0
26.72010 51.0