Folder: DataAnalysis/data/W6907r/XRD_2ThetaOmega

Note: data/W6907r/XRD_2ThetaOmega/W6907r_peaks.TXT
No.	Label	Pos. [°2Th.]	FWHM Left [°2Th.]	Area [cts*°2Th.]	Backgr.[cts]	d-spacing [Å]	Height [cts]	Shape Left	Status	Integral Breadth [°2Th.]	FWHM Right [°2Th.]	Shape Right	Obs. Lorentz B [°2Th.]	Obs. Gauss B [°2Th.]	Instr. Lorentz B [°2Th.]	Instr. Gauss B [°2Th.]	Crystallite Size [Å]	Micro Strain [%]	Crystallite Size only [Å]	Micro Strain only [%]
1	Cr2O3 0 2 4	50,2189(9)	0,458(3)	493,15	179,00	1,81525	789(4)	0,68(1)	Included	0,624988	 	 	0,446136	0,295288	0,074566	0,063171	262,351700	0,268569	172,493700	0,526179
2	Al2O3 0 2 4	52,51553(1)	0,05819(3)	29116,93	200,81	1,74114	408388(206)	0,4070(7)	Included	0,071297	 	 	0,031784	0,049211	0,074848	0,063410	-2285,588000	-0,035370	31121,570000	0,002797

Note: README.md
# Methods
## RSM analysis

Check out [doc](documentation/RSM.md)

File: scan_2th-om_r2_Cr2O3_45-55deg_PIXscan_5min_C8.xy
45.0025 102.0
45.0369 112.0
45.0714 93.0
45.1059 114.0
45.1403 142.0
45.1748 121.0
45.2093 116.0
45.2437 114.0
45.2782 106.0
45.3127 96.0
45.3471 119.0
45.3816 119.0
45.4161 112.0
45.4505 94.0
45.485 114.0
45.5195 99.0
45.5539 112.0
45.5884 103.0
45.6229 95.0
45.6573 106.0
45.6918 122.0
45.7263 107.0
45.7607 123.0
45.7952 121.0
45.8297 108.0
45.8641 114.0
45.8986 114.0
45.9331 101.0
45.9675 97.0
46.002 119.0
46.0365 86.0
46.0709 97.0
46.1054 114.0
46.1399 101.0
46.1743 96.0
46.2088 106.0
46.2433 113.0
46.2777 104.0
46.3122 112.0
46.3467 122.0
46.3811 122.0
46.4156 107.0
46.4501 77.0
46.4845 102.0
46.519 119.0
46.5535 97.0
46.5879 108.0
46.6224 88.0
46.6569 91.0
46.6913 137.0
46.7258 120.0
46.7603 125.0
46.7947 123.0
46.8292 140.0
46.8637 133.0
46.8981 114.0
46.9326 136.0
46.9671 127.0
47.0015 144.0
47.036 184.0
47.0705 454.0
47.1049 1336.0
47.1394 1491.0
47.1739 648.0
47.2083 387.0
47.2428 257.0
47.2773 191.0
47.3118 159.0
47.3462 164.0
47.3807 127.0
47.4152 137.0
47.4496 132.0
47.4841 126.0
47.5186 134.0
47.553 123.0
47.5875 137.0
47.622 131.0
47.6564 120.0
47.6909 123.0
47.7254 113.0
47.7598 156.0
47.7943 140.0
47.8288 144.0
47.8632 110.0
47.8977 122.0
47.9322 125.0
47.9666 124.0
48.0011 116.0
48.0356 116.0
48.07 115.0
48.1045 93.0
48.139 127.0
48.1734 135.0
48.2079 127.0
48.2424 125.0
48.2768 128.0
48.3113 129.0
48.3458 131.0
48.3802 150.0
48.4147 119.0
48.4492 110.0
48.4836 129.0
48.5181 139.0
48.5526 148.0
48.587 143.0
48.6215 115.0
48.656 102.0
48.6904 153.0
48.7249 121.0
48.7594 123.0
48.7938 129.0
48.8283 127.0
48.8628 122.0
48.8972 147.0
48.9317 121.0
48.9662 140.0
49.0006 145.0
49.0351 136.0
49.0696 142.0
49.104 146.0
49.1385 150.0
49.173 127.0
49.2074 147.0
49.2419 151.0
49.2764 131.0
49.3108 162.0
49.3453 135.0
49.3798 163.0
49.4142 132.0
49.4487 154.0
49.4832 150.0
49.5176 182.0
49.5521 170.0
49.5866 196.0
49.621 195.0
49.6555 207.0
49.69 213.0
49.7244 237.0
49.7589 243.0
49.7934 276.0
49.8278 340.0
49.8623 380.0
49.8968 478.0
49.9312 539.0
49.9657 641.0
50.0002 700.0
50.0346 842.0
50.0691 978.0
50.1036 1114.0
50.138 1192.0
50.1725 1279.0
50.207 1415.0
50.2414 1374.0
50.2759 1295.0
50.3104 1234.0
50.3448 1165.0
50.3793 1069.0
50.4138 937.0
50.4482 874.0
50.4827 770.0
50.5172 700.0
50.5516 610.0
50.5861 583.0
50.6206 483.0
50.655 451.0
50.6895 422.0
50.724 416.0
50.7584 345.0
50.7929 332.0
50.8274 312.0
50.8619 303.0
50.8963 310.0
50.9308 281.0
50.9653 300.0
50.9997 308.0
51.0342 315.0
51.0687 300.0
51.1031 285.0
51.1376 283.0
51.1721 330.0
51.2065 305.0
51.241 338.0
51.2755 333.0
51.3099 375.0
51.3444 369.0
51.3789 404.0
51.4133 402.0
51.4478 425.0
51.4823 403.0
51.5167 470.0
51.5512 435.0
51.5857 455.0
51.6201 465.0
51.6546 518.0
51.6891 502.0
51.7235 566.0
51.758 596.0
51.7925 639.0
51.8269 645.0
51.8614 643.0
51.8959 675.0
51.9303 724.0
51.9648 761.0
51.9993 911.0
52.0337 995.0
52.0682 1041.0
52.1027 1196.0
52.1371 1323.0
52.1716 1564.0
52.2061 2324.0
52.2405 3432.0
52.275 4540.0
52.3095 4559.0
52.3439 4674.0
52.3784 5902.0
52.4129 9850.0
52.4473 25081.0
52.4818 178975.0
52.5163 388806.0
52.5507 159722.0
52.5852 33977.0
52.6197 85048.0
52.6541 195891.0
52.6886 97440.0
52.7231 16666.0
52.7575 7402.0
52.792 4616.0
52.8265 3374.0
52.8609 2701.0
52.8954 2149.0
52.9299 1867.0
52.9643 1595.0
52.9988 1384.0
53.0333 1188.0
53.0677 1043.0
53.1022 1014.0
53.1367 873.0
53.1711 795.0
53.2056 699.0
53.2401 700.0
53.2745 618.0
53.309 551.0
53.3435 573.0
53.3779 520.0
53.4124 493.0
53.4469 448.0
53.4813 408.0
53.5158 372.0
53.5503 350.0
53.5847 314.0
53.6192 304.0
53.6537 307.0
53.6881 263.0
53.7226 281.0
53.7571 256.0
53.7915 220.0
53.826 229.0
53.8605 217.0
53.8949 229.0
53.9294 199.0
53.9639 194.0
53.9983 212.0
54.0328 170.0
54.0673 172.0
54.1017 226.0
54.1362 183.0
54.1707 165.0
54.2051 165.0
54.2396 176.0
54.2741 173.0
54.3085 177.0
54.343 159.0
54.3775 155.0
54.412 158.0
54.4464 159.0
54.4809 169.0
54.5154 178.0
54.5498 166.0
54.5843 152.0
54.6188 154.0
54.6532 133.0
54.6877 147.0
54.7222 139.0
54.7566 139.0
54.7911 150.0
54.8256 146.0
54.86 160.0
54.8945 154.0
54.929 135.0
54.9634 149.0
54.9979 154.0