Folder: DataAnalysis/data/W6856r/XRD_2ThetaOmega

Note: data/W6856r/XRD_2ThetaOmega/W6856r_peaks.TXT
No.	Label	Pos. [°2Th.]	FWHM Left [°2Th.]	Area [cts*°2Th.]	Backgr.[cts]	d-spacing [Å]	Height [cts]	Shape Left	Status	Integral Breadth [°2Th.]	FWHM Right [°2Th.]	Shape Right	Obs. Lorentz B [°2Th.]	Obs. Gauss B [°2Th.]	Instr. Lorentz B [°2Th.]	Instr. Gauss B [°2Th.]	Crystallite Size [Å]	Micro Strain [%]	Crystallite Size only [Å]	Micro Strain only [%]
1	Cr2O3 0 1 2	24,117(1)	0,220(6)	95,62	47,35	3,68721	277(6)	1,00(6)	Included	0,345477	 	 	0,343856	0,005834	0,074687	0,063270	335,333200	-0,128679	335,287000	0,549859
2	Al2O3 0 1 2	25,50751(4)	0,04764(7)	2324,71	4,42	3,48928	41749(74)	0,277(2)	Included	0,055683	 	 	0,017280	0,043932	0,074550	0,063154	-1580,286000	-0,087459	28616,250000	0,006097
3	Al2O3 0 2 4	52,48685(4)	0,0545(1)	2477,81	11,36	1,74203	36762(65)	0,432(2)	Included	0,067401	 	 	0,031766	0,045230	0,074844	0,063407	-2284,547000	-0,039329	31117,730000	0,002799
4	Al2O3 0 3 6	83,1643(2)	0,0669(6)	141,70	12,60	1,16063	1685(13)	0,47(1)	Included	0,084075	 	 	0,043264	0,053642	0,085581	0,072499	-2788,636000	-0,023984	37312,880000	0,001555
5	Al2O3 0 4 8	124,5815(1)	0,1020(4)	936,26	18,30	0,87008	6590(22)	0,731(5)	Included	0,142073	 	 	0,108022	0,060881	0,144531	0,122409	-5199,642000	-0,024337	60023,880000	0,000725

Note: README.md
# Methods
## RSM analysis

Check out [doc](documentation/RSM.md)

File: W6856r_absolute_2th-om_10-130deg_PIXscan_17min_8.xy
10.0035 17.0
10.4072 22.0
10.811 20.0
11.2147 22.0
11.6185 28.0
12.0222 19.0
12.426 20.0
12.8298 25.0
13.2335 11.0
13.6373 20.0
14.041 17.0
14.4448 19.0
14.8485 16.0
15.2523 15.0
15.656 16.0
16.0598 12.0
16.4636 20.0
16.8673 18.0
17.2711 22.0
17.6748 20.0
18.0786 16.0
18.4823 13.0
18.8861 15.0
19.2899 15.0
19.6936 13.0
20.0974 15.0
20.5011 5.0
20.9049 11.0
21.3086 14.0
21.7124 12.0
22.1161 19.0
22.5199 19.0
22.9237 14.0
23.3274 18.0
23.7312 32.0
24.1349 439.0
24.5387 90.0
24.9424 47.0
25.3462 260.0
25.75 287.0
26.1537 86.0
26.5575 29.0
26.9612 16.0
27.365 24.0
27.7687 19.0
28.1725 18.0
28.5762 17.0
28.98 14.0
29.3838 11.0
29.7875 12.0
30.1913 13.0
30.595 11.0
30.9988 6.0
31.4025 9.0
31.8063 16.0
32.2101 13.0
32.6138 11.0
33.0176 11.0
33.4213 15.0
33.8251 11.0
34.2288 10.0
34.6326 20.0
35.0363 13.0
35.4401 13.0
35.8439 10.0
36.2476 5.0
36.6514 11.0
37.0551 17.0
37.4589 4.0
37.8626 12.0
38.2664 11.0
38.6702 7.0
39.0739 8.0
39.4777 8.0
39.8814 11.0
40.2852 15.0
40.6889 14.0
41.0927 11.0
41.4964 10.0
41.9002 10.0
42.304 8.0
42.7077 19.0
43.1115 15.0
43.5152 7.0
43.919 17.0
44.3227 24.0
44.7265 13.0
45.1303 14.0
45.534 9.0
45.9378 11.0
46.3415 13.0
46.7453 12.0
47.149 31.0
47.5528 14.0
47.9565 18.0
48.3603 16.0
48.7641 15.0
49.1678 18.0
49.5716 28.0
49.9753 22.0
50.3791 22.0
50.7828 18.0
51.1866 23.0
51.5903 36.0
51.9941 66.0
52.3979 1142.0
52.8016 384.0
53.2054 96.0
53.6091 64.0
54.0129 40.0
54.4166 26.0
54.8204 16.0
55.2242 12.0
55.6279 21.0
56.0317 12.0
56.4354 13.0
56.8392 23.0
57.2429 10.0
57.6467 10.0
58.0504 12.0
58.4542 21.0
58.858 8.0
59.2617 11.0
59.6655 9.0
60.0692 12.0
60.473 14.0
60.8767 14.0
61.2805 12.0
61.6843 10.0
62.088 9.0
62.4918 9.0
62.8955 8.0
63.2993 13.0
63.703 9.0
64.1068 8.0
64.5105 9.0
64.9143 14.0
65.3181 8.0
65.7218 10.0
66.1256 12.0
66.5293 12.0
66.9331 10.0
67.3368 5.0
67.7406 11.0
68.1444 8.0
68.5481 8.0
68.9519 10.0
69.3556 12.0
69.7594 11.0
70.1631 15.0
70.5669 9.0
70.9706 10.0
71.3744 6.0
71.7782 14.0
72.1819 8.0
72.5857 14.0
72.9894 12.0
73.3932 13.0
73.7969 7.0
74.2007 16.0
74.6045 5.0
75.0082 16.0
75.412 14.0
75.8157 9.0
76.2195 9.0
76.6232 12.0
77.027 11.0
77.4307 11.0
77.8345 6.0
78.2383 9.0
78.642 17.0
79.0458 11.0
79.4495 9.0
79.8533 8.0
80.257 9.0
80.6608 9.0
81.0646 11.0
81.4683 13.0
81.8721 7.0
82.2758 12.0
82.6796 20.0
83.0833 107.0
83.4871 109.0
83.8908 23.0
84.2946 15.0
84.6984 8.0
85.1021 18.0
85.5059 12.0
85.9096 7.0
86.3134 9.0
86.7171 9.0
87.1209 10.0
87.5247 8.0
87.9284 11.0
88.3322 13.0
88.7359 15.0
89.1397 13.0
89.5434 10.0
89.9472 10.0
90.3509 6.0
90.7547 12.0
91.1585 13.0
91.5622 12.0
91.966 11.0
92.3697 5.0
92.7735 11.0
93.1772 13.0
93.581 11.0
93.9848 14.0
94.3885 6.0
94.7923 17.0
95.196 10.0
95.5998 10.0
96.0035 7.0
96.4073 19.0
96.811 15.0
97.2148 7.0
97.6186 11.0
98.0223 10.0
98.4261 10.0
98.8298 21.0
99.2336 9.0
99.6373 19.0
100.041 11.0
100.445 8.0
100.849 9.0
101.252 13.0
101.656 17.0
102.06 8.0
102.464 11.0
102.867 8.0
103.271 15.0
103.675 15.0
104.079 12.0
104.482 10.0
104.886 12.0
105.29 13.0
105.694 15.0
106.097 13.0
106.501 9.0
106.905 14.0
107.309 15.0
107.712 13.0
108.116 15.0
108.52 12.0
108.924 15.0
109.327 9.0
109.731 13.0
110.135 12.0
110.539 16.0
110.943 17.0
111.346 17.0
111.75 14.0
112.154 20.0
112.558 17.0
112.961 11.0
113.365 17.0
113.769 15.0
114.173 10.0
114.576 18.0
114.98 11.0
115.384 17.0
115.788 23.0
116.191 21.0
116.595 12.0
116.999 8.0
117.403 11.0
117.806 6.0
118.21 14.0
118.614 14.0
119.018 11.0
119.421 16.0
119.825 9.0
120.229 9.0
120.633 15.0
121.036 11.0
121.44 13.0
121.844 22.0
122.248 15.0
122.651 17.0
123.055 18.0
123.459 28.0
123.863 39.0
124.266 115.0
124.67 1526.0
125.074 1838.0
125.478 81.0
125.881 40.0
126.285 18.0
126.689 27.0
127.093 12.0
127.497 23.0
127.9 23.0
128.304 21.0
128.708 25.0
129.112 16.0
129.515 20.0
129.919 21.0
129.998 12.0