Folder: DataAnalysis/data/W6910c/XRD_2ThetaOmega

Note: data/W6910c/XRD_2ThetaOmega/W6910c_peaks.TXT
No.	Label	Pos. [°2Th.]	FWHM Left [°2Th.]	Area [cts*°2Th.]	Backgr.[cts]	d-spacing [Å]	Height [cts]	Shape Left	Status	Integral Breadth [°2Th.]	FWHM Right [°2Th.]	Shape Right	Obs. Lorentz B [°2Th.]	Obs. Gauss B [°2Th.]	Instr. Lorentz B [°2Th.]	Instr. Gauss B [°2Th.]	Crystallite Size [Å]	Micro Strain [%]	Crystallite Size only [Å]	Micro Strain only [%]
1	Cr2O3 0 0 6	39,5153(2)	0,2646(7)	1971,45	119,31	2,27871	5940(14)	0,470(4)	Included	0,331894	 	 	0,169077	0,213078	0,073936	0,062636	985,816200	0,247405	349,345000	0,326140
2	Al2O3 0 0 6	41,61910(3)	0,05180(6)	4167,91	135,27	2,16825	67626(87)	0,327(2)	Included	0,061632	 	 	0,022355	0,046304	0,073977	0,062671	-1829,262000	-0,048487	29857,960000	0,003631

Note: README.md
# Methods
## RSM analysis

Check out [doc](documentation/RSM.md)

File: w6910c_scan_2th-om_c_Cr2O3_35-45deg_PIXscan_4min.xy
35.0021 128.0
35.0365 113.0
35.071 114.0
35.1055 115.0
35.1399 112.0
35.1744 120.0
35.2089 125.0
35.2433 136.0
35.2778 122.0
35.3123 137.0
35.3467 148.0
35.3812 129.0
35.4157 141.0
35.4501 130.0
35.4846 136.0
35.5191 157.0
35.5535 154.0
35.588 141.0
35.6225 163.0
35.6569 138.0
35.6914 116.0
35.7259 111.0
35.7603 113.0
35.7948 145.0
35.8293 123.0
35.8637 130.0
35.8982 114.0
35.9327 114.0
35.9671 110.0
36.0016 109.0
36.0361 118.0
36.0705 123.0
36.105 109.0
36.1395 135.0
36.1739 121.0
36.2084 147.0
36.2429 116.0
36.2773 119.0
36.3118 113.0
36.3463 114.0
36.3807 120.0
36.4152 118.0
36.4497 124.0
36.4841 111.0
36.5186 103.0
36.5531 121.0
36.5875 127.0
36.622 115.0
36.6565 114.0
36.6909 133.0
36.7254 110.0
36.7599 105.0
36.7943 104.0
36.8288 121.0
36.8633 133.0
36.8977 130.0
36.9322 131.0
36.9667 136.0
37.0011 139.0
37.0356 120.0
37.0701 124.0
37.1045 109.0
37.139 131.0
37.1735 117.0
37.2079 134.0
37.2424 111.0
37.2769 130.0
37.3114 129.0
37.3458 145.0
37.3803 154.0
37.4148 289.0
37.4492 356.0
37.4837 214.0
37.5182 158.0
37.5526 130.0
37.5871 150.0
37.6216 137.0
37.656 114.0
37.6905 135.0
37.725 139.0
37.7594 112.0
37.7939 111.0
37.8284 132.0
37.8628 122.0
37.8973 120.0
37.9318 128.0
37.9662 118.0
38.0007 137.0
38.0352 128.0
38.0696 145.0
38.1041 125.0
38.1386 132.0
38.173 127.0
38.2075 132.0
38.242 137.0
38.2764 167.0
38.3109 153.0
38.3454 184.0
38.3798 156.0
38.4143 135.0
38.4488 151.0
38.4832 158.0
38.5177 167.0
38.5522 169.0
38.5866 149.0
38.6211 155.0
38.6556 177.0
38.69 178.0
38.7245 193.0
38.759 193.0
38.7934 180.0
38.8279 164.0
38.8624 199.0
38.8968 234.0
38.9313 264.0
38.9658 269.0
39.0002 366.0
39.0347 354.0
39.0692 411.0
39.1036 520.0
39.1381 614.0
39.1726 763.0
39.207 1006.0
39.2415 1207.0
39.276 1550.0
39.3104 1950.0
39.3449 2516.0
39.3794 3212.0
39.4138 4177.0
39.4483 5447.0
39.4828 6845.0
39.5172 8234.0
39.5517 8834.0
39.5862 8314.0
39.6206 7266.0
39.6551 5912.0
39.6896 4467.0
39.724 3234.0
39.7585 2143.0
39.793 1521.0
39.8274 1108.0
39.8619 809.0
39.8964 641.0
39.9308 533.0
39.9653 384.0
39.9998 339.0
40.0342 332.0
40.0687 263.0
40.1032 271.0
40.1376 221.0
40.1721 226.0
40.2066 182.0
40.241 174.0
40.2755 186.0
40.31 174.0
40.3444 182.0
40.3789 140.0
40.4134 177.0
40.4478 171.0
40.4823 169.0
40.5168 156.0
40.5512 177.0
40.5857 194.0
40.6202 180.0
40.6546 185.0
40.6891 179.0
40.7236 185.0
40.758 166.0
40.7925 192.0
40.827 182.0
40.8615 200.0
40.8959 210.0
40.9304 207.0
40.9649 192.0
40.9993 197.0
41.0338 185.0
41.0683 206.0
41.1027 273.0
41.1372 255.0
41.1717 273.0
41.2061 272.0
41.2406 294.0
41.2751 284.0
41.3095 345.0
41.344 373.0
41.3785 506.0
41.4129 783.0
41.4474 952.0
41.4819 966.0
41.5163 1260.0
41.5508 2781.0
41.5853 23304.0
41.6197 61299.0
41.6542 20439.0
41.6887 9868.0
41.7231 30898.0
41.7576 15386.0
41.7921 2010.0
41.8265 975.0
41.861 676.0
41.8955 534.0
41.9299 425.0
41.9644 363.0
41.9989 358.0
42.0333 286.0
42.0678 258.0
42.1023 255.0
42.1367 216.0
42.1712 232.0
42.2057 179.0
42.2401 201.0
42.2746 173.0
42.3091 193.0
42.3435 152.0
42.378 158.0
42.4125 147.0
42.4469 158.0
42.4814 166.0
42.5159 160.0
42.5503 163.0
42.5848 148.0
42.6193 132.0
42.6537 150.0
42.6882 151.0
42.7227 127.0
42.7571 144.0
42.7916 112.0
42.8261 141.0
42.8605 152.0
42.895 125.0
42.9295 138.0
42.9639 147.0
42.9984 162.0
43.0329 147.0
43.0673 129.0
43.1018 146.0
43.1363 113.0
43.1707 142.0
43.2052 128.0
43.2397 138.0
43.2741 131.0
43.3086 136.0
43.3431 122.0
43.3775 135.0
43.412 135.0
43.4465 130.0
43.4809 142.0
43.5154 117.0
43.5499 145.0
43.5843 133.0
43.6188 138.0
43.6533 137.0
43.6877 140.0
43.7222 127.0
43.7567 150.0
43.7911 133.0
43.8256 144.0
43.8601 142.0
43.8945 143.0
43.929 154.0
43.9635 128.0
43.9979 137.0
44.0324 171.0
44.0669 157.0
44.1013 181.0
44.1358 170.0
44.1703 163.0
44.2047 178.0
44.2392 174.0
44.2737 195.0
44.3081 223.0
44.3426 280.0
44.3771 274.0
44.4116 248.0
44.446 272.0
44.4805 245.0
44.515 233.0
44.5494 211.0
44.5839 214.0
44.6184 182.0
44.6528 183.0
44.6873 172.0
44.7218 154.0
44.7562 158.0
44.7907 148.0
44.8252 123.0
44.8596 156.0
44.8941 150.0
44.9286 151.0
44.963 144.0
44.9975 115.0