Folder: DataAnalysis/data/W6910c/XRD_Omega

Note: data/W6910c/XRD_Omega/W6910c_omega_peaks.TXT
No.	Label	Pos. [記mega]	FWHM Left [記mega]	Area [cts*記mega]	Backgr.[cts]	d-spacing [魔	Height [cts]	Shape Left	Status	Integral Breadth [記mega]	FWHM Right [記mega]	Shape Right	Obs. Lorentz B [記mega]	Obs. Gauss B [記mega]	Instr. Lorentz B [記mega]	Instr. Gauss B [記mega]	Crystallite Size [魔	Micro Strain [%]	Crystallite Size only [魔	Micro Strain only [%]
1	Cr2O3 0 0 6	19,7602(4)	0,5895(9)	2048,29	67,51	 	3069(6)	0,186(2)	Included	0,667457	 	 	0,141128	0,573213	0,075199	0,063702	1359,006000	1,427124	146,360400	1,533635

Note: README.md
# Methods
## RSM analysis

Check out [doc](documentation/RSM.md)

File: w6910c_c-Cr2O3_scan_omega_4deg_step_0.005deg0_1.xy
17.80490 68.0
17.81990 62.0
17.83490 67.0
17.84990 70.0
17.86490 70.0
17.87990 73.0
17.89490 80.0
17.90990 69.0
17.92490 68.0
17.93990 61.0
17.95490 74.0
17.96990 70.0
17.98490 60.0
17.99990 71.0
18.01490 70.0
18.02990 80.0
18.04490 78.0
18.05990 64.0
18.07490 77.0
18.08990 73.0
18.10490 70.0
18.11990 81.0
18.13490 82.0
18.14990 61.0
18.16490 78.0
18.17990 72.0
18.19490 67.0
18.20990 84.0
18.22490 62.0
18.23990 66.0
18.25490 64.0
18.26990 69.0
18.28490 81.0
18.29990 83.0
18.31490 89.0
18.32990 84.0
18.34490 71.0
18.35990 86.0
18.37490 65.0
18.38990 64.0
18.40490 81.0
18.41990 70.0
18.43490 81.0
18.44990 67.0
18.46490 73.0
18.47990 73.0
18.49490 71.0
18.50990 84.0
18.52490 81.0
18.53990 81.0
18.55490 102.0
18.56990 85.0
18.58490 87.0
18.59990 85.0
18.61490 97.0
18.62990 103.0
18.64490 107.0
18.65990 103.0
18.67490 96.0
18.68990 101.0
18.70490 110.0
18.71990 101.0
18.73490 103.0
18.74990 118.0
18.76490 127.0
18.77990 141.0
18.79490 114.0
18.80990 131.0
18.82490 129.0
18.83990 149.0
18.85490 137.0
18.86990 147.0
18.88490 138.0
18.89990 170.0
18.91490 144.0
18.92990 213.0
18.94490 217.0
18.95990 212.0
18.97490 225.0
18.98990 246.0
19.00490 266.0
19.01990 260.0
19.03490 263.0
19.04990 301.0
19.06490 309.0
19.07990 336.0
19.09490 353.0
19.10990 420.0
19.12490 387.0
19.13990 402.0
19.15490 460.0
19.16990 482.0
19.18490 526.0
19.19990 580.0
19.21490 619.0
19.22990 643.0
19.24490 718.0
19.25990 793.0
19.27490 801.0
19.28990 834.0
19.30490 949.0
19.31990 998.0
19.33490 1096.0
19.34990 1198.0
19.36490 1270.0
19.37990 1354.0
19.39490 1435.0
19.40990 1521.0
19.42490 1693.0
19.43990 1720.0
19.45490 1860.0
19.46990 2039.0
19.48490 2289.0
19.49990 2356.0
19.51490 2516.0
19.52990 2673.0
19.54490 2916.0
19.55990 3108.0
19.57490 3154.0
19.58990 3391.0
19.60490 3606.0
19.61990 3802.0
19.63490 3896.0
19.64990 3987.0
19.66490 4308.0
19.67990 4435.0
19.69490 4614.0
19.70990 4723.0
19.72490 4885.0
19.73990 4907.0
19.75490 4838.0
19.76990 4980.0
19.78490 4997.0
19.79990 5164.0
19.81490 4845.0
19.82990 4835.0
19.84490 4699.0
19.85990 4565.0
19.87490 4495.0
19.88990 4352.0
19.90490 4261.0
19.91990 3939.0
19.93490 3774.0
19.94990 3593.0
19.96490 3436.0
19.97990 3357.0
19.99490 3074.0
20.00990 2886.0
20.02490 2676.0
20.03990 2608.0
20.05490 2410.0
20.06990 2245.0
20.08490 2108.0
20.09990 1872.0
20.11490 1749.0
20.12990 1691.0
20.14490 1531.0
20.15990 1419.0
20.17490 1338.0
20.18990 1277.0
20.20490 1129.0
20.21990 1067.0
20.23490 934.0
20.24990 872.0
20.26490 835.0
20.27990 764.0
20.29490 692.0
20.30990 655.0
20.32490 629.0
20.33990 565.0
20.35490 590.0
20.36990 528.0
20.38490 472.0
20.39990 403.0
20.41490 379.0
20.42990 389.0
20.44490 345.0
20.45990 320.0
20.47490 296.0
20.48990 292.0
20.50490 271.0
20.51990 266.0
20.53490 251.0
20.54990 237.0
20.56490 180.0
20.57990 186.0
20.59490 199.0
20.60990 224.0
20.62490 187.0
20.63990 177.0
20.65490 127.0
20.66990 134.0
20.68490 150.0
20.69990 141.0
20.71490 138.0
20.72990 124.0
20.74490 134.0
20.75990 104.0
20.77490 96.0
20.78990 105.0
20.80490 130.0
20.81990 112.0
20.83490 100.0
20.84990 96.0
20.86490 112.0
20.87990 98.0
20.89490 87.0
20.90990 86.0
20.92490 100.0
20.93990 80.0
20.95490 93.0
20.96990 76.0
20.98490 80.0
20.99990 78.0
21.01490 85.0
21.02990 90.0
21.04490 67.0
21.05990 79.0
21.07490 86.0
21.08990 90.0
21.10490 68.0
21.11990 76.0
21.13490 74.0
21.14990 74.0
21.16490 62.0
21.17990 64.0
21.19490 61.0
21.20990 65.0
21.22490 65.0
21.23990 68.0
21.25490 79.0
21.26990 61.0
21.28490 68.0
21.29990 72.0
21.31490 61.0
21.32990 78.0
21.34490 71.0
21.35990 57.0
21.37490 75.0
21.38990 82.0
21.40490 69.0
21.41990 61.0
21.43490 59.0
21.44990 62.0
21.46490 47.0
21.47990 59.0
21.49490 71.0
21.50990 65.0
21.52490 51.0
21.53990 57.0
21.55490 57.0
21.56990 60.0
21.58490 59.0
21.59990 70.0
21.61490 63.0
21.62990 48.0
21.64490 63.0
21.65990 72.0
21.67490 72.0
21.68990 61.0
21.70490 48.0
21.71990 49.0
21.73490 51.0
21.74990 71.0
21.76490 67.0