Folder: DataAnalysis/data/W6785r/XRD_Omega

Note: data/W6785r/XRD_Omega/W6785r_omega_peaks.TXT
No.	Label	Pos. [記mega]	FWHM Left [記mega]	Area [cts*記mega]	Backgr.[cts]	d-spacing [魔	Height [cts]	Shape Left	Status	Integral Breadth [記mega]	FWHM Right [記mega]	Shape Right	Obs. Lorentz B [記mega]	Obs. Gauss B [記mega]	Instr. Lorentz B [記mega]	Instr. Gauss B [記mega]	Crystallite Size [魔	Micro Strain [%]	Crystallite Size only [魔	Micro Strain only [%]
1	Cr2O3 0 2 4	24,7788(6)	0,743(1)	1376,34	39,48	 	1605(4)	0,241(3)	Included	0,857656	 	 	0,233096	0,700165	0,074620	0,063213	570,272600	1,385059	112,769800	1,591835

Note: README.md
# Methods
## RSM analysis

Check out [doc](documentation/RSM.md)

File: scan_omega_4deg_step_0.005deg0_7.xy
22.82210 38.0
22.83710 38.0
22.85210 32.0
22.86710 46.0
22.88210 35.0
22.89710 55.0
22.91210 50.0
22.92710 35.0
22.94210 41.0
22.95710 43.0
22.97210 39.0
22.98710 45.0
23.00210 42.0
23.01710 48.0
23.03210 47.0
23.04710 58.0
23.06210 45.0
23.07710 48.0
23.09210 26.0
23.10710 40.0
23.12210 41.0
23.13710 41.0
23.15210 34.0
23.16710 53.0
23.18210 50.0
23.19710 57.0
23.21210 52.0
23.22710 55.0
23.24210 63.0
23.25710 76.0
23.27210 58.0
23.28710 58.0
23.30210 63.0
23.31710 51.0
23.33210 55.0
23.34710 60.0
23.36210 54.0
23.37710 64.0
23.39210 70.0
23.40710 68.0
23.42210 71.0
23.43710 67.0
23.45210 64.0
23.46710 68.0
23.48210 72.0
23.49710 57.0
23.51210 71.0
23.52710 66.0
23.54210 72.0
23.55710 79.0
23.57210 81.0
23.58710 78.0
23.60210 88.0
23.61710 84.0
23.63210 92.0
23.64710 108.0
23.66210 105.0
23.67710 98.0
23.69210 93.0
23.70710 98.0
23.72210 124.0
23.73710 121.0
23.75210 134.0
23.76710 118.0
23.78210 126.0
23.79710 131.0
23.81210 130.0
23.82710 148.0
23.84210 142.0
23.85710 147.0
23.87210 163.0
23.88710 154.0
23.90210 186.0
23.91710 204.0
23.93210 185.0
23.94710 178.0
23.96210 207.0
23.97710 239.0
23.99210 218.0
24.00710 242.0
24.02210 253.0
24.03710 264.0
24.05210 279.0
24.06710 341.0
24.08210 314.0
24.09710 312.0
24.11210 339.0
24.12710 375.0
24.14210 402.0
24.15710 420.0
24.17210 470.0
24.18710 469.0
24.20210 470.0
24.21710 524.0
24.23210 566.0
24.24710 589.0
24.26210 616.0
24.27710 670.0
24.29210 688.0
24.30710 806.0
24.32210 816.0
24.33710 759.0
24.35210 877.0
24.36710 945.0
24.38210 1021.0
24.39710 1074.0
24.41210 1090.0
24.42710 1120.0
24.44210 1216.0
24.45710 1284.0
24.47210 1407.0
24.48710 1380.0
24.50210 1459.0
24.51710 1564.0
24.53210 1571.0
24.54710 1675.0
24.56210 1784.0
24.57710 1790.0
24.59210 1917.0
24.60710 2046.0
24.62210 2002.0
24.63710 2204.0
24.65210 2153.0
24.66710 2182.0
24.68210 2297.0
24.69710 2460.0
24.71210 2367.0
24.72710 2587.0
24.74210 2480.0
24.75710 2541.0
24.77210 2592.0
24.78710 2512.0
24.80210 2508.0
24.81710 2588.0
24.83210 2522.0
24.84710 2609.0
24.86210 2585.0
24.87710 2439.0
24.89210 2429.0
24.90710 2477.0
24.92210 2370.0
24.93710 2357.0
24.95210 2167.0
24.96710 2080.0
24.98210 2031.0
24.99710 1922.0
25.01210 1933.0
25.02710 1812.0
25.04210 1813.0
25.05710 1682.0
25.07210 1663.0
25.08710 1574.0
25.10210 1489.0
25.11710 1401.0
25.13210 1286.0
25.14710 1312.0
25.16210 1152.0
25.17710 1166.0
25.19210 1103.0
25.20710 969.0
25.22210 994.0
25.23710 903.0
25.25210 868.0
25.26710 808.0
25.28210 784.0
25.29710 748.0
25.31210 733.0
25.32710 619.0
25.34210 599.0
25.35710 579.0
25.37210 534.0
25.38710 477.0
25.40210 504.0
25.41710 446.0
25.43210 462.0
25.44710 409.0
25.46210 390.0
25.47710 368.0
25.49210 327.0
25.50710 331.0
25.52210 293.0
25.53710 312.0
25.55210 283.0
25.56710 281.0
25.58210 246.0
25.59710 213.0
25.61210 230.0
25.62710 178.0
25.64210 226.0
25.65710 200.0
25.67210 190.0
25.68710 169.0
25.70210 164.0
25.71710 150.0
25.73210 173.0
25.74710 142.0
25.76210 144.0
25.77710 129.0
25.79210 112.0
25.80710 131.0
25.82210 126.0
25.83710 120.0
25.85210 115.0
25.86710 118.0
25.88210 101.0
25.89710 93.0
25.91210 103.0
25.92710 102.0
25.94210 85.0
25.95710 96.0
25.97210 77.0
25.98710 79.0
26.00210 72.0
26.01710 82.0
26.03210 77.0
26.04710 76.0
26.06210 72.0
26.07710 82.0
26.09210 72.0
26.10710 58.0
26.12210 54.0
26.13710 67.0
26.15210 61.0
26.16710 61.0
26.18210 49.0
26.19710 58.0
26.21210 52.0
26.22710 47.0
26.24210 56.0
26.25710 48.0
26.27210 54.0
26.28710 55.0
26.30210 55.0
26.31710 65.0
26.33210 63.0
26.34710 42.0
26.36210 46.0
26.37710 39.0
26.39210 43.0
26.40710 59.0
26.42210 47.0
26.43710 46.0
26.45210 54.0
26.46710 56.0
26.48210 48.0
26.49710 54.0
26.51210 41.0
26.52710 41.0
26.54210 46.0
26.55710 42.0
26.57210 46.0
26.58710 41.0
26.60210 48.0
26.61710 27.0
26.63210 42.0
26.64710 30.0
26.66210 34.0
26.67710 41.0
26.69210 47.0
26.70710 43.0
26.72210 44.0
26.73710 43.0
26.75210 37.0
26.76710 33.0
26.78210 41.0