Folder: DataAnalysis/data/W6854m/XRD_2ThetaOmega

Note: data/W6854m/XRD_2ThetaOmega/W6854m_peaks.TXT
No.	Label	Pos. [°2Th.]	FWHM Left [°2Th.]	Area [cts*°2Th.]	Backgr.[cts]	d-spacing [Å]	Height [cts]	Shape Left	Status	Integral Breadth [°2Th.]	FWHM Right [°2Th.]	Shape Right	Obs. Lorentz B [°2Th.]	Obs. Gauss B [°2Th.]	Instr. Lorentz B [°2Th.]	Instr. Gauss B [°2Th.]	Crystallite Size [Å]	Micro Strain [%]	Crystallite Size only [Å]	Micro Strain only [%]
1	Cr2O3 3 0 0	64,038(1)	0,372(3)	204,22	18,01	1,45284	399(5)	0,71(2)	Included	0,511891	 	 	0,377066	0,231021	0,077197	0,065400	347,176500	0,154603	233,440200	0,311180
2	Al2O3 3 0 0	68,16028(4)	0,0598(1)	2478,48	129,22	1,37467	33121(62)	0,464(4)	Included	0,074830	 	 	0,037710	0,048357	0,078470	0,066478	-2614,696000	-0,029420	33697,640000	0,002040

Note: README.md
# Methods
## RSM analysis

Check out [doc](documentation/RSM.md)

File: W6854m_absolute_2th-om_10-130deg_PIXscan_17min_2.xy
10.0035 19.0
10.4072 26.0
10.811 19.0
11.2147 29.0
11.6185 18.0
12.0222 22.0
12.426 24.0
12.8298 21.0
13.2335 16.0
13.6373 18.0
14.041 14.0
14.4448 10.0
14.8485 15.0
15.2523 20.0
15.656 12.0
16.0598 15.0
16.4636 17.0
16.8673 12.0
17.2711 15.0
17.6748 9.0
18.0786 16.0
18.4823 10.0
18.8861 10.0
19.2899 12.0
19.6936 20.0
20.0974 7.0
20.5011 13.0
20.9049 8.0
21.3086 14.0
21.7124 12.0
22.1161 9.0
22.5199 8.0
22.9237 5.0
23.3274 11.0
23.7312 16.0
24.1349 8.0
24.5387 6.0
24.9424 8.0
25.3462 13.0
25.75 5.0
26.1537 6.0
26.5575 13.0
26.9612 7.0
27.365 13.0
27.7687 9.0
28.1725 11.0
28.5762 10.0
28.98 7.0
29.3838 9.0
29.7875 6.0
30.1913 10.0
30.595 7.0
30.9988 6.0
31.4025 3.0
31.8063 6.0
32.2101 12.0
32.6138 7.0
33.0176 8.0
33.4213 19.0
33.8251 10.0
34.2288 4.0
34.6326 7.0
35.0363 12.0
35.4401 7.0
35.8439 9.0
36.2476 5.0
36.6514 5.0
37.0551 8.0
37.4589 6.0
37.8626 9.0
38.2664 5.0
38.6702 6.0
39.0739 15.0
39.4777 8.0
39.8814 5.0
40.2852 5.0
40.6889 13.0
41.0927 11.0
41.4964 6.0
41.9002 14.0
42.304 6.0
42.7077 10.0
43.1115 11.0
43.5152 9.0
43.919 8.0
44.3227 14.0
44.7265 10.0
45.1303 6.0
45.534 6.0
45.9378 11.0
46.3415 10.0
46.7453 10.0
47.149 16.0
47.5528 8.0
47.9565 7.0
48.3603 12.0
48.7641 10.0
49.1678 9.0
49.5716 8.0
49.9753 8.0
50.3791 8.0
50.7828 13.0
51.1866 13.0
51.5903 6.0
51.9941 10.0
52.3979 8.0
52.8016 5.0
53.2054 9.0
53.6091 8.0
54.0129 14.0
54.4166 14.0
54.8204 11.0
55.2242 12.0
55.6279 16.0
56.0317 12.0
56.4354 7.0
56.8392 20.0
57.2429 14.0
57.6467 6.0
58.0504 10.0
58.4542 10.0
58.858 6.0
59.2617 15.0
59.6655 15.0
60.0692 14.0
60.473 16.0
60.8767 77.0
61.2805 17.0
61.6843 20.0
62.088 9.0
62.4918 11.0
62.8955 14.0
63.2993 35.0
63.703 106.0
64.1068 522.0
64.5105 105.0
64.9143 95.0
65.3181 23.0
65.7218 29.0
66.1256 22.0
66.5293 25.0
66.9331 33.0
67.3368 37.0
67.7406 122.0
68.1444 27739.0
68.5481 334.0
68.9519 77.0
69.3556 53.0
69.7594 39.0
70.1631 31.0
70.5669 24.0
70.9706 16.0
71.3744 16.0
71.7782 14.0
72.1819 19.0
72.5857 18.0
72.9894 10.0
73.3932 18.0
73.7969 9.0
74.2007 12.0
74.6045 9.0
75.0082 10.0
75.412 13.0
75.8157 9.0
76.2195 20.0
76.6232 13.0
77.027 16.0
77.4307 6.0
77.8345 9.0
78.2383 12.0
78.642 15.0
79.0458 10.0
79.4495 8.0
79.8533 9.0
80.257 12.0
80.6608 9.0
81.0646 9.0
81.4683 15.0
81.8721 7.0
82.2758 13.0
82.6796 6.0
83.0833 10.0
83.4871 9.0
83.8908 10.0
84.2946 16.0
84.6984 7.0
85.1021 16.0
85.5059 14.0
85.9096 15.0
86.3134 13.0
86.7171 8.0
87.1209 11.0
87.5247 10.0
87.9284 23.0
88.3322 11.0
88.7359 15.0
89.1397 13.0
89.5434 17.0
89.9472 9.0
90.3509 19.0
90.7547 7.0
91.1585 7.0
91.5622 9.0
91.966 12.0
92.3697 7.0
92.7735 7.0
93.1772 9.0
93.581 12.0
93.9848 16.0
94.3885 5.0
94.7923 10.0
95.196 11.0
95.5998 13.0
96.0035 4.0
96.4073 9.0
96.811 18.0
97.2148 15.0
97.6186 11.0
98.0223 15.0
98.4261 10.0
98.8298 13.0
99.2336 13.0
99.6373 8.0
100.041 13.0
100.445 8.0
100.849 11.0
101.252 13.0
101.656 8.0
102.06 11.0
102.464 10.0
102.867 12.0
103.271 7.0
103.675 11.0
104.079 15.0
104.482 16.0
104.886 12.0
105.29 11.0
105.694 15.0
106.097 15.0
106.501 7.0
106.905 14.0
107.309 12.0
107.712 19.0
108.116 12.0
108.52 8.0
108.924 14.0
109.327 13.0
109.731 11.0
110.135 14.0
110.539 13.0
110.943 14.0
111.346 13.0
111.75 15.0
112.154 9.0
112.558 8.0
112.961 12.0
113.365 14.0
113.769 14.0
114.173 5.0
114.576 8.0
114.98 10.0
115.384 8.0
115.788 9.0
116.191 9.0
116.595 14.0
116.999 10.0
117.403 14.0
117.806 16.0
118.21 9.0
118.614 17.0
119.018 24.0
119.421 12.0
119.825 14.0
120.229 6.0
120.633 11.0
121.036 14.0
121.44 11.0
121.844 8.0
122.248 11.0
122.651 10.0
123.055 10.0
123.459 8.0
123.863 16.0
124.266 12.0
124.67 17.0
125.074 12.0
125.478 11.0
125.881 10.0
126.285 10.0
126.689 11.0
127.093 12.0
127.497 7.0
127.9 13.0
128.304 7.0
128.708 13.0
129.112 18.0
129.515 15.0
129.919 13.0
129.998 15.0