Folder: DataAnalysis/data/W6854m/XRD_Omega

Note: README.md
# Methods
## RSM analysis

Check out [doc](documentation/RSM.md)

File: W6854m_Cr2O3_scan_omega_2deg_step_0.002deg0_2.xy
31.58330 661.0
31.59130 646.0
31.59930 686.0
31.60730 650.0
31.61530 753.0
31.62330 744.0
31.63130 723.0
31.63930 718.0
31.64730 766.0
31.65530 789.0
31.66330 779.0
31.67130 817.0
31.67930 835.0
31.68730 832.0
31.69530 847.0
31.70330 884.0
31.71130 847.0
31.71930 890.0
31.72730 894.0
31.73530 984.0
31.74330 959.0
31.75130 947.0
31.75930 912.0
31.76730 1014.0
31.77530 1039.0
31.78330 1023.0
31.79130 1045.0
31.79930 1072.0
31.80730 1051.0
31.81530 1063.0
31.82330 1139.0
31.83130 1152.0
31.83930 1153.0
31.84730 1120.0
31.85530 1158.0
31.86330 1219.0
31.87130 1148.0
31.87930 1232.0
31.88730 1248.0
31.89530 1220.0
31.90330 1262.0
31.91130 1271.0
31.91930 1288.0
31.92730 1329.0
31.93530 1438.0
31.94330 1396.0
31.95130 1344.0
31.95930 1513.0
31.96730 1477.0
31.97530 1417.0
31.98330 1495.0
31.99130 1552.0
31.99930 1586.0
32.00730 1543.0
32.01530 1557.0
32.02330 1577.0
32.03130 1630.0
32.03930 1645.0
32.04730 1661.0
32.05530 1707.0
32.06330 1784.0
32.07130 1779.0
32.07930 1780.0
32.08730 1828.0
32.09530 1732.0
32.10330 1834.0
32.11130 1841.0
32.11930 2036.0
32.12730 1979.0
32.13530 1980.0
32.14330 1984.0
32.15130 2006.0
32.15930 1962.0
32.16730 2048.0
32.17530 2176.0
32.18330 2178.0
32.19130 2194.0
32.19930 2176.0
32.20730 2176.0
32.21530 2187.0
32.22330 2281.0
32.23130 2237.0
32.23930 2298.0
32.24730 2272.0
32.25530 2300.0
32.26330 2360.0
32.27130 2454.0
32.27930 2310.0
32.28730 2361.0
32.29530 2539.0
32.30330 2451.0
32.31130 2565.0
32.31930 2485.0
32.32730 2531.0
32.33530 2474.0
32.34330 2521.0
32.35130 2687.0
32.35930 2645.0
32.36730 2615.0
32.37530 2652.0
32.38330 2682.0
32.39130 2554.0
32.39930 2589.0
32.40730 2717.0
32.41530 2739.0
32.42330 2664.0
32.43130 2811.0
32.43930 2672.0
32.44730 2700.0
32.45530 2835.0
32.46330 2857.0
32.47130 2766.0
32.47930 2841.0
32.48730 2850.0
32.49530 2911.0
32.50330 2782.0
32.51130 2966.0
32.51930 2872.0
32.52730 2919.0
32.53530 2905.0
32.54330 2849.0
32.55130 2919.0
32.55930 2944.0
32.56730 2857.0
32.57530 2864.0
32.58330 2891.0
32.59130 2991.0
32.59930 3013.0
32.60730 3020.0
32.61530 3006.0
32.62330 3297.0
32.63130 3349.0
32.63930 3573.0
32.64730 3896.0
32.65530 4141.0
32.66330 4128.0
32.67130 3857.0
32.67930 3672.0
32.68730 3495.0
32.69530 3298.0
32.70330 3320.0
32.71130 3356.0
32.71930 3217.0
32.72730 3282.0
32.73530 3244.0
32.74330 3222.0
32.75130 3104.0
32.75930 2989.0
32.76730 2949.0
32.77530 2853.0
32.78330 2981.0
32.79130 2829.0
32.79930 2908.0
32.80730 2839.0
32.81530 2817.0
32.82330 2684.0
32.83130 2621.0
32.83930 2543.0
32.84730 2458.0
32.85530 2458.0
32.86330 2442.0
32.87130 2421.0
32.87930 2442.0
32.88730 2347.0
32.89530 2342.0
32.90330 2222.0
32.91130 2286.0
32.91930 2236.0
32.92730 2178.0
32.93530 2139.0
32.94330 2088.0
32.95130 2125.0
32.95930 2085.0
32.96730 1992.0
32.97530 1930.0
32.98330 1950.0
32.99130 1964.0
32.99930 1882.0
33.00730 1842.0
33.01530 1884.0
33.02330 1797.0
33.03130 1821.0
33.03930 1756.0
33.04730 1742.0
33.05530 1763.0
33.06330 1706.0
33.07130 1600.0
33.07930 1630.0
33.08730 1585.0
33.09530 1576.0
33.10330 1574.0
33.11130 1586.0
33.11930 1497.0
33.12730 1592.0
33.13530 1476.0
33.14330 1412.0
33.15130 1425.0
33.15930 1420.0
33.16730 1402.0
33.17530 1297.0
33.18330 1291.0
33.19130 1369.0
33.19930 1349.0
33.20730 1228.0
33.21530 1231.0
33.22330 1212.0
33.23130 1256.0
33.23930 1132.0
33.24730 1131.0
33.25530 1201.0
33.26330 1132.0
33.27130 1151.0
33.27930 1044.0
33.28730 1104.0
33.29530 1047.0
33.30330 975.0
33.31130 1044.0
33.31930 1011.0
33.32730 969.0
33.33530 975.0
33.34330 913.0
33.35130 939.0
33.35930 864.0
33.36730 926.0
33.37530 890.0
33.38330 861.0
33.39130 827.0
33.39930 787.0
33.40730 782.0
33.41530 824.0
33.42330 825.0
33.43130 801.0
33.43930 744.0
33.44730 713.0
33.45530 727.0
33.46330 710.0
33.47130 707.0
33.47930 718.0
33.48730 677.0
33.49530 690.0
33.50330 675.0
33.51130 659.0
33.51930 618.0
33.52730 681.0
33.53530 652.0
33.54330 664.0
33.55130 632.0
33.55930 648.0
33.56730 621.0