Folder: DataAnalysis/data/W6957r/XRD_2ThetaOmega

Note: README.md
# Methods
## RSM analysis

Check out [doc](documentation/RSM.md)

File: r_scan_2th-om_10-130deg_PIXscan_17min_C1.xy
10.0035 47.0
10.4072 50.0
10.811 48.0
11.2147 48.0
11.6185 53.0
12.0222 52.0
12.426 36.0
12.8298 33.0
13.2335 37.0
13.6373 34.0
14.041 30.0
14.4448 35.0
14.8485 31.0
15.2523 38.0
15.656 23.0
16.0598 34.0
16.4636 34.0
16.8673 26.0
17.2711 27.0
17.6748 32.0
18.0786 25.0
18.4823 29.0
18.8861 37.0
19.2899 34.0
19.6936 25.0
20.0974 23.0
20.5011 23.0
20.9049 25.0
21.3086 16.0
21.7124 26.0
22.1161 27.0
22.5199 24.0
22.9237 26.0
23.3274 35.0
23.7312 51.0
24.1349 138.0
24.5387 584.0
24.9424 118.0
25.3462 432.0
25.75 493.0
26.1537 60.0
26.5575 30.0
26.9612 22.0
27.365 19.0
27.7687 30.0
28.1725 19.0
28.5762 21.0
28.98 20.0
29.3838 29.0
29.7875 24.0
30.1913 20.0
30.595 16.0
30.9988 20.0
31.4025 18.0
31.8063 21.0
32.2101 18.0
32.6138 16.0
33.0176 11.0
33.4213 21.0
33.8251 18.0
34.2288 12.0
34.6326 18.0
35.0363 22.0
35.4401 27.0
35.8439 22.0
36.2476 25.0
36.6514 17.0
37.0551 15.0
37.4589 12.0
37.8626 23.0
38.2664 13.0
38.6702 21.0
39.0739 21.0
39.4777 25.0
39.8814 23.0
40.2852 20.0
40.6889 26.0
41.0927 26.0
41.4964 17.0
41.9002 19.0
42.304 25.0
42.7077 18.0
43.1115 21.0
43.5152 15.0
43.919 21.0
44.3227 40.0
44.7265 25.0
45.1303 16.0
45.534 21.0
45.9378 25.0
46.3415 20.0
46.7453 36.0
47.149 169.0
47.5528 26.0
47.9565 25.0
48.3603 32.0
48.7641 33.0
49.1678 42.0
49.5716 94.0
49.9753 722.0
50.3791 221.0
50.7828 60.0
51.1866 64.0
51.5903 113.0
51.9941 151.0
52.3979 1843.0
52.8016 784.0
53.2054 122.0
53.6091 63.0
54.0129 50.0
54.4166 35.0
54.8204 31.0
55.2242 30.0
55.6279 30.0
56.0317 25.0
56.4354 31.0
56.8392 25.0
57.2429 17.0
57.6467 20.0
58.0504 19.0
58.4542 26.0
58.858 28.0
59.2617 23.0
59.6655 25.0
60.0692 24.0
60.473 27.0
60.8767 28.0
61.2805 28.0
61.6843 19.0
62.088 25.0
62.4918 28.0
62.8955 40.0
63.2993 21.0
63.703 22.0
64.1068 21.0
64.5105 19.0
64.9143 26.0
65.3181 22.0
65.7218 26.0
66.1256 19.0
66.5293 20.0
66.9331 28.0
67.3368 22.0
67.7406 21.0
68.1444 16.0
68.5481 22.0
68.9519 29.0
69.3556 17.0
69.7594 14.0
70.1631 27.0
70.5669 23.0
70.9706 46.0
71.3744 24.0
71.7782 23.0
72.1819 32.0
72.5857 32.0
72.9894 32.0
73.3932 29.0
73.7969 30.0
74.2007 19.0
74.6045 27.0
75.0082 27.0
75.412 26.0
75.8157 25.0
76.2195 24.0
76.6232 28.0
77.027 25.0
77.4307 28.0
77.8345 21.0
78.2383 20.0
78.642 46.0
79.0458 59.0
79.4495 38.0
79.8533 29.0
80.257 30.0
80.6608 32.0
81.0646 37.0
81.4683 32.0
81.8721 25.0
82.2758 36.0
82.6796 56.0
83.0833 184.0
83.4871 587.0
83.8908 54.0
84.2946 34.0
84.6984 29.0
85.1021 23.0
85.5059 28.0
85.9096 27.0
86.3134 29.0
86.7171 31.0
87.1209 34.0
87.5247 25.0
87.9284 29.0
88.3322 27.0
88.7359 22.0
89.1397 22.0
89.5434 26.0
89.9472 33.0
90.3509 25.0
90.7547 30.0
91.1585 33.0
91.5622 30.0
91.966 34.0
92.3697 25.0
92.7735 40.0
93.1772 26.0
93.581 30.0
93.9848 25.0
94.3885 38.0
94.7923 33.0
95.196 29.0
95.5998 24.0
96.0035 37.0
96.4073 32.0
96.811 34.0
97.2148 17.0
97.6186 21.0
98.0223 26.0
98.4261 25.0
98.8298 16.0
99.2336 24.0
99.6373 34.0
100.041 26.0
100.445 28.0
100.849 29.0
101.252 32.0
101.656 27.0
102.06 34.0
102.464 18.0
102.867 35.0
103.271 30.0
103.675 26.0
104.079 41.0
104.482 29.0
104.886 27.0
105.29 30.0
105.694 26.0
106.097 42.0
106.501 29.0
106.905 24.0
107.309 27.0
107.712 32.0
108.116 23.0
108.52 24.0
108.924 36.0
109.327 19.0
109.731 36.0
110.135 21.0
110.539 39.0
110.943 27.0
111.346 29.0
111.75 26.0
112.154 27.0
112.558 28.0
112.961 32.0
113.365 27.0
113.769 41.0
114.173 29.0
114.576 29.0
114.98 43.0
115.384 42.0
115.788 51.0
116.191 42.0
116.595 47.0
116.999 28.0
117.403 34.0
117.806 27.0
118.21 27.0
118.614 32.0
119.018 44.0
119.421 28.0
119.825 35.0
120.229 33.0
120.633 27.0
121.036 41.0
121.44 47.0
121.844 41.0
122.248 45.0
122.651 53.0
123.055 48.0
123.459 71.0
123.863 114.0
124.266 311.0
124.67 4730.0
125.074 3507.0
125.478 173.0
125.881 78.0
126.285 50.0
126.689 48.0
127.093 49.0
127.497 44.0
127.9 38.0
128.304 36.0
128.708 39.0
129.112 26.0
129.515 38.0
129.919 34.0
129.998 26.0