Folder: DataAnalysis/data/W6814r1/XRD_Omega

Note: data/W6814r1/XRD_Omega/W6814r1_omega_peaks.TXT
No.	Label	Pos. [記mega]	FWHM Left [記mega]	Area [cts*記mega]	Backgr.[cts]	d-spacing [魔	Height [cts]	Shape Left	Status	Integral Breadth [記mega]	FWHM Right [記mega]	Shape Right	Obs. Lorentz B [記mega]	Obs. Gauss B [記mega]	Instr. Lorentz B [記mega]	Instr. Gauss B [記mega]	Crystallite Size [魔	Micro Strain [%]	Crystallite Size only [魔	Micro Strain only [%]
1	Cr2O3 0 2 4	23,5907(6)	0,948(2)	1770,89	39,52	 	1627(3)	0,225(3)	Included	1,088227	 	 	0,276944	0,901686	0,074742	0,063316	445,960100	1,879379	87,358230	2,156798

Note: README.md
# Methods
## RSM analysis

Check out [doc](documentation/RSM.md)

File: w6814r1_scan_omega.xy
21.61630 44.0
21.63130 59.0
21.64630 44.0
21.66130 49.0
21.67630 59.0
21.69130 59.0
21.70630 33.0
21.72130 58.0
21.73630 58.0
21.75130 55.0
21.76630 52.0
21.78130 54.0
21.79630 66.0
21.81130 63.0
21.82630 62.0
21.84130 53.0
21.85630 56.0
21.87130 58.0
21.88630 56.0
21.90130 71.0
21.91630 60.0
21.93130 59.0
21.94630 72.0
21.96130 73.0
21.97630 61.0
21.99130 89.0
22.00630 74.0
22.02130 79.0
22.03630 77.0
22.05130 81.0
22.06630 65.0
22.08130 82.0
22.09630 81.0
22.11130 71.0
22.12630 80.0
22.14130 91.0
22.15630 79.0
22.17130 96.0
22.18630 107.0
22.20130 104.0
22.21630 89.0
22.23130 93.0
22.24630 110.0
22.26130 106.0
22.27630 109.0
22.29130 117.0
22.30630 141.0
22.32130 122.0
22.33630 135.0
22.35130 121.0
22.36630 155.0
22.38130 132.0
22.39630 165.0
22.41130 155.0
22.42630 163.0
22.44130 178.0
22.45630 173.0
22.47130 188.0
22.48630 180.0
22.50130 196.0
22.51630 203.0
22.53130 218.0
22.54630 200.0
22.56130 221.0
22.57630 233.0
22.59130 263.0
22.60630 255.0
22.62130 281.0
22.63630 301.0
22.65130 325.0
22.66630 288.0
22.68130 323.0
22.69630 362.0
22.71130 377.0
22.72630 407.0
22.74130 380.0
22.75630 422.0
22.77130 439.0
22.78630 436.0
22.80130 426.0
22.81630 477.0
22.83130 503.0
22.84630 522.0
22.86130 516.0
22.87630 554.0
22.89130 626.0
22.90630 636.0
22.92130 624.0
22.93630 681.0
22.95130 715.0
22.96630 731.0
22.98130 832.0
22.99630 859.0
23.01130 818.0
23.02630 924.0
23.04130 911.0
23.05630 893.0
23.07130 1005.0
23.08630 1012.0
23.10130 1126.0
23.11630 1194.0
23.13130 1213.0
23.14630 1212.0
23.16130 1290.0
23.17630 1259.0
23.19130 1364.0
23.20630 1424.0
23.22130 1423.0
23.23630 1595.0
23.25130 1578.0
23.26630 1598.0
23.28130 1700.0
23.29630 1731.0
23.31130 1831.0
23.32630 1806.0
23.34130 1848.0
23.35630 1993.0
23.37130 2043.0
23.38630 2008.0
23.40130 2114.0
23.41630 2022.0
23.43130 2156.0
23.44630 2281.0
23.46130 2118.0
23.47630 2336.0
23.49130 2273.0
23.50630 2330.0
23.52130 2426.0
23.53630 2387.0
23.55130 2451.0
23.56630 2473.0
23.58130 2523.0
23.59630 2598.0
23.61130 2553.0
23.62630 2643.0
23.64130 2515.0
23.65630 2526.0
23.67130 2534.0
23.68630 2474.0
23.70130 2508.0
23.71630 2511.0
23.73130 2528.0
23.74630 2514.0
23.76130 2426.0
23.77630 2348.0
23.79130 2365.0
23.80630 2374.0
23.82130 2345.0
23.83630 2170.0
23.85130 2148.0
23.86630 2247.0
23.88130 1986.0
23.89630 1940.0
23.91130 1951.0
23.92630 1918.0
23.94130 1921.0
23.95630 1692.0
23.97130 1696.0
23.98630 1709.0
24.00130 1604.0
24.01630 1491.0
24.03130 1507.0
24.04630 1436.0
24.06130 1392.0
24.07630 1293.0
24.09130 1215.0
24.10630 1245.0
24.12130 1127.0
24.13630 1017.0
24.15130 1044.0
24.16630 974.0
24.18130 943.0
24.19630 924.0
24.21130 762.0
24.22630 814.0
24.24130 761.0
24.25630 668.0
24.27130 707.0
24.28630 605.0
24.30130 603.0
24.31630 576.0
24.33130 549.0
24.34630 527.0
24.36130 486.0
24.37630 464.0
24.39130 441.0
24.40630 434.0
24.42130 427.0
24.43630 337.0
24.45130 359.0
24.46630 368.0
24.48130 327.0
24.49630 279.0
24.51130 309.0
24.52630 253.0
24.54130 251.0
24.55630 246.0
24.57130 228.0
24.58630 242.0
24.60130 187.0
24.61630 200.0
24.63130 175.0
24.64630 191.0
24.66130 175.0
24.67630 181.0
24.69130 138.0
24.70630 150.0
24.72130 154.0
24.73630 135.0
24.75130 127.0
24.76630 115.0
24.78130 126.0
24.79630 103.0
24.81130 128.0
24.82630 113.0
24.84130 112.0
24.85630 104.0
24.87130 84.0
24.88630 106.0
24.90130 97.0
24.91630 73.0
24.93130 77.0
24.94630 74.0
24.96130 76.0
24.97630 81.0
24.99130 73.0
25.00630 76.0
25.02130 66.0
25.03630 86.0
25.05130 99.0
25.06630 65.0
25.08130 98.0
25.09630 90.0
25.11130 80.0
25.12630 85.0
25.14130 71.0
25.15630 119.0
25.17130 97.0
25.18630 78.0
25.20130 101.0
25.21630 88.0
25.23130 84.0
25.24630 129.0
25.26130 157.0
25.27630 168.0
25.29130 93.0
25.30630 70.0
25.32130 58.0
25.33630 70.0
25.35130 59.0
25.36630 51.0
25.38130 52.0
25.39630 50.0
25.41130 39.0
25.42630 43.0
25.44130 38.0
25.45630 45.0
25.47130 41.0
25.48630 47.0
25.50130 46.0
25.51630 42.0
25.53130 51.0
25.54630 39.0
25.56130 40.0
25.57630 36.0
25.58630 35.0