Folder: DataAnalysis/data/W6900c/XRD_2ThetaOmega

Note: data/W6900c/XRD_2ThetaOmega/W6900c_peaks.TXT
No.	Label	Pos. [°2Th.]	FWHM Left [°2Th.]	Area [cts*°2Th.]	Backgr.[cts]	d-spacing [Å]	Height [cts]	Shape Left	Status	Integral Breadth [°2Th.]	FWHM Right [°2Th.]	Shape Right	Obs. Lorentz B [°2Th.]	Obs. Gauss B [°2Th.]	Instr. Lorentz B [°2Th.]	Instr. Gauss B [°2Th.]	Crystallite Size [Å]	Micro Strain [%]	Crystallite Size only [Å]	Micro Strain only [%]
1	Cr2O3 0 0 6	38,865(3)	0,842(9)	147,67	180,99	2,31530	163(3)	0,0(1)	Included	0,903684	 	 	0,027241	0,889125	0,073931	0,062632	-2004,761000	1,096921	105,524600	1,097044
2	Al2O3 0 0 6	41,61303(3)	0,05310(6)	4381,06	184,64	2,16855	69161(88)	0,334(2)	Included	0,063346	 	 	0,023476	0,047229	0,073977	0,062671	-1869,821000	-0,047304	29857,360000	0,003632

Note: README.md
# Methods
## RSM analysis

Check out [doc](documentation/RSM.md)

File: scan_2th-om_c_Cr2O3_35-45deg_PIXscan_4min_C1.xy
35.0021 166.0
35.0365 182.0
35.071 153.0
35.1055 158.0
35.1399 179.0
35.1744 142.0
35.2089 162.0
35.2433 203.0
35.2778 162.0
35.3123 161.0
35.3467 169.0
35.3812 178.0
35.4157 158.0
35.4501 153.0
35.4846 153.0
35.5191 167.0
35.5535 162.0
35.588 164.0
35.6225 160.0
35.6569 160.0
35.6914 152.0
35.7259 160.0
35.7603 169.0
35.7948 149.0
35.8293 152.0
35.8637 155.0
35.8982 170.0
35.9327 158.0
35.9671 161.0
36.0016 165.0
36.0361 159.0
36.0705 158.0
36.105 163.0
36.1395 174.0
36.1739 171.0
36.2084 171.0
36.2429 170.0
36.2773 136.0
36.3118 166.0
36.3463 152.0
36.3807 169.0
36.4152 150.0
36.4497 162.0
36.4841 160.0
36.5186 155.0
36.5531 157.0
36.5875 146.0
36.622 153.0
36.6565 175.0
36.6909 142.0
36.7254 159.0
36.7599 171.0
36.7943 167.0
36.8288 169.0
36.8633 149.0
36.8977 185.0
36.9322 163.0
36.9667 184.0
37.0011 176.0
37.0356 171.0
37.0701 172.0
37.1045 143.0
37.139 180.0
37.1735 175.0
37.2079 169.0
37.2424 179.0
37.2769 168.0
37.3114 172.0
37.3458 178.0
37.3803 200.0
37.4148 318.0
37.4492 393.0
37.4837 217.0
37.5182 177.0
37.5526 170.0
37.5871 171.0
37.6216 165.0
37.656 182.0
37.6905 161.0
37.725 208.0
37.7594 174.0
37.7939 176.0
37.8284 170.0
37.8628 159.0
37.8973 168.0
37.9318 183.0
37.9662 185.0
38.0007 178.0
38.0352 197.0
38.0696 206.0
38.1041 195.0
38.1386 208.0
38.173 214.0
38.2075 208.0
38.242 225.0
38.2764 228.0
38.3109 245.0
38.3454 271.0
38.3798 281.0
38.4143 273.0
38.4488 302.0
38.4832 328.0
38.5177 338.0
38.5522 312.0
38.5866 331.0
38.6211 374.0
38.6556 399.0
38.69 335.0
38.7245 378.0
38.759 406.0
38.7934 413.0
38.8279 393.0
38.8624 399.0
38.8968 393.0
38.9313 470.0
38.9658 438.0
39.0002 399.0
39.0347 402.0
39.0692 425.0
39.1036 415.0
39.1381 410.0
39.1726 376.0
39.207 369.0
39.2415 368.0
39.276 306.0
39.3104 312.0
39.3449 283.0
39.3794 275.0
39.4138 293.0
39.4483 255.0
39.4828 229.0
39.5172 227.0
39.5517 227.0
39.5862 195.0
39.6206 207.0
39.6551 202.0
39.6896 220.0
39.724 217.0
39.7585 181.0
39.793 212.0
39.8274 187.0
39.8619 187.0
39.8964 176.0
39.9308 178.0
39.9653 166.0
39.9998 169.0
40.0342 191.0
40.0687 149.0
40.1032 182.0
40.1376 178.0
40.1721 167.0
40.2066 191.0
40.241 155.0
40.2755 183.0
40.31 172.0
40.3444 189.0
40.3789 164.0
40.4134 162.0
40.4478 183.0
40.4823 186.0
40.5168 183.0
40.5512 173.0
40.5857 170.0
40.6202 210.0
40.6546 169.0
40.6891 191.0
40.7236 190.0
40.758 203.0
40.7925 181.0
40.827 209.0
40.8615 199.0
40.8959 213.0
40.9304 235.0
40.9649 262.0
40.9993 215.0
41.0338 297.0
41.0683 287.0
41.1027 231.0
41.1372 264.0
41.1717 297.0
41.2061 294.0
41.2406 289.0
41.2751 319.0
41.3095 367.0
41.344 452.0
41.3785 583.0
41.4129 891.0
41.4474 1065.0
41.4819 1069.0
41.5163 1576.0
41.5508 4141.0
41.5853 35584.0
41.6197 65665.0
41.6542 14124.0
41.6887 15754.0
41.7231 32870.0
41.7576 10522.0
41.7921 1782.0
41.8265 1006.0
41.861 701.0
41.8955 516.0
41.9299 476.0
41.9644 413.0
41.9989 378.0
42.0333 332.0
42.0678 355.0
42.1023 304.0
42.1367 266.0
42.1712 224.0
42.2057 211.0
42.2401 191.0
42.2746 207.0
42.3091 207.0
42.3435 216.0
42.378 174.0
42.4125 184.0
42.4469 169.0
42.4814 184.0
42.5159 188.0
42.5503 177.0
42.5848 185.0
42.6193 187.0
42.6537 171.0
42.6882 164.0
42.7227 146.0
42.7571 157.0
42.7916 169.0
42.8261 164.0
42.8605 183.0
42.895 172.0
42.9295 165.0
42.9639 158.0
42.9984 150.0
43.0329 178.0
43.0673 161.0
43.1018 167.0
43.1363 171.0
43.1707 151.0
43.2052 176.0
43.2397 149.0
43.2741 171.0
43.3086 159.0
43.3431 165.0
43.3775 169.0
43.412 163.0
43.4465 150.0
43.4809 177.0
43.5154 174.0
43.5499 154.0
43.5843 191.0
43.6188 167.0
43.6533 159.0
43.6877 174.0
43.7222 185.0
43.7567 157.0
43.7911 174.0
43.8256 166.0
43.8601 164.0
43.8945 211.0
43.929 176.0
43.9635 188.0
43.9979 225.0
44.0324 181.0
44.0669 185.0
44.1013 210.0
44.1358 171.0
44.1703 213.0
44.2047 230.0
44.2392 215.0
44.2737 256.0
44.3081 311.0
44.3426 335.0
44.3771 392.0
44.4116 363.0
44.446 349.0
44.4805 320.0
44.515 329.0
44.5494 263.0
44.5839 277.0
44.6184 214.0
44.6528 214.0
44.6873 186.0
44.7218 176.0
44.7562 193.0
44.7907 165.0
44.8252 151.0
44.8596 171.0
44.8941 155.0
44.9286 167.0
44.963 144.0
44.9975 155.0