Folder: DataAnalysis/data/W6900c/XRD_Omega

Note: data/W6900c/XRD_Omega/W6900c_omega_peaks.TXT
No.	Label	Pos. [記mega]	FWHM Left [記mega]	Area [cts*記mega]	Backgr.[cts]	d-spacing [魔	Height [cts]	Shape Left	Status	Integral Breadth [記mega]	FWHM Right [記mega]	Shape Right	Obs. Lorentz B [記mega]	Obs. Gauss B [記mega]	Instr. Lorentz B [記mega]	Instr. Gauss B [記mega]	Crystallite Size [魔	Micro Strain [%]	Crystallite Size only [魔	Micro Strain only [%]
1	Cr2O3 0 0 6	19,539(6)	1,54(2)	188,03	85,90	 	93(1)	0,58(4)	Included	2,017473	 	 	1,244308	1,122907	0,075228	0,063727	76,614640	2,841009	45,387440	5,000916

Note: README.md
# Methods
## RSM analysis

Check out [doc](documentation/RSM.md)

File: scan_omega_4deg_step_0.005deg0_C1_3.xy
17.53140 99.0
17.54640 103.0
17.56140 94.0
17.57640 92.0
17.59140 98.0
17.60640 107.0
17.62140 99.0
17.63640 97.0
17.65140 110.0
17.66640 103.0
17.68140 96.0
17.69640 117.0
17.71140 103.0
17.72640 85.0
17.74140 103.0
17.75640 109.0
17.77140 99.0
17.78640 111.0
17.80140 86.0
17.81640 113.0
17.83140 96.0
17.84640 102.0
17.86140 109.0
17.87640 97.0
17.89140 100.0
17.90640 94.0
17.92140 123.0
17.93640 101.0
17.95140 108.0
17.96640 113.0
17.98140 115.0
17.99640 93.0
18.01140 114.0
18.02640 113.0
18.04140 108.0
18.05640 110.0
18.07140 113.0
18.08640 115.0
18.10140 125.0
18.11640 89.0
18.13140 97.0
18.14640 115.0
18.16140 125.0
18.17640 122.0
18.19140 110.0
18.20640 113.0
18.22140 109.0
18.23640 118.0
18.25140 116.0
18.26640 98.0
18.28140 103.0
18.29640 116.0
18.31140 118.0
18.32640 105.0
18.34140 121.0
18.35640 131.0
18.37140 132.0
18.38640 110.0
18.40140 121.0
18.41640 132.0
18.43140 124.0
18.44640 121.0
18.46140 120.0
18.47640 137.0
18.49140 128.0
18.50640 132.0
18.52140 135.0
18.53640 129.0
18.55140 131.0
18.56640 140.0
18.58140 150.0
18.59640 154.0
18.61140 131.0
18.62640 133.0
18.64140 142.0
18.65640 144.0
18.67140 135.0
18.68640 147.0
18.70140 152.0
18.71640 168.0
18.73140 152.0
18.74640 141.0
18.76140 162.0
18.77640 174.0
18.79140 150.0
18.80640 158.0
18.82140 144.0
18.83640 150.0
18.85140 155.0
18.86640 157.0
18.88140 165.0
18.89640 180.0
18.91140 187.0
18.92640 168.0
18.94140 185.0
18.95640 181.0
18.97140 173.0
18.98640 197.0
19.00140 183.0
19.01640 175.0
19.03140 183.0
19.04640 181.0
19.06140 166.0
19.07640 201.0
19.09140 205.0
19.10640 206.0
19.12140 180.0
19.13640 215.0
19.15140 213.0
19.16640 211.0
19.18140 205.0
19.19640 234.0
19.21140 198.0
19.22640 195.0
19.24140 196.0
19.25640 224.0
19.27140 211.0
19.28640 220.0
19.30140 217.0
19.31640 199.0
19.33140 195.0
19.34640 186.0
19.36140 219.0
19.37640 238.0
19.39140 221.0
19.40640 230.0
19.42140 222.0
19.43640 223.0
19.45140 213.0
19.46640 214.0
19.48140 253.0
19.49640 226.0
19.51140 218.0
19.52640 216.0
19.54140 239.0
19.55640 230.0
19.57140 206.0
19.58640 236.0
19.60140 244.0
19.61640 217.0
19.63140 218.0
19.64640 244.0
19.66140 238.0
19.67640 253.0
19.69140 247.0
19.70640 225.0
19.72140 215.0
19.73640 199.0
19.75140 215.0
19.76640 233.0
19.78140 208.0
19.79640 191.0
19.81140 202.0
19.82640 197.0
19.84140 207.0
19.85640 216.0
19.87140 192.0
19.88640 208.0
19.90140 220.0
19.91640 179.0
19.93140 214.0
19.94640 166.0
19.96140 191.0
19.97640 180.0
19.99140 208.0
20.00640 199.0
20.02140 175.0
20.03640 187.0
20.05140 163.0
20.06640 190.0
20.08140 193.0
20.09640 187.0
20.11140 189.0
20.12640 185.0
20.14140 185.0
20.15640 184.0
20.17140 173.0
20.18640 174.0
20.20140 148.0
20.21640 184.0
20.23140 155.0
20.24640 158.0
20.26140 170.0
20.27640 162.0
20.29140 179.0
20.30640 170.0
20.32140 170.0
20.33640 131.0
20.35140 170.0
20.36640 162.0
20.38140 185.0
20.39640 165.0
20.41140 134.0
20.42640 139.0
20.44140 154.0
20.45640 126.0
20.47140 139.0
20.48640 143.0
20.50140 130.0
20.51640 128.0
20.53140 120.0
20.54640 134.0
20.56140 136.0
20.57640 122.0
20.59140 136.0
20.60640 114.0
20.62140 137.0
20.63640 109.0
20.65140 116.0
20.66640 129.0
20.68140 113.0
20.69640 103.0
20.71140 128.0
20.72640 110.0
20.74140 123.0
20.75640 110.0
20.77140 125.0
20.78640 98.0
20.80140 118.0
20.81640 101.0
20.83140 107.0
20.84640 112.0
20.86140 88.0
20.87640 94.0
20.89140 118.0
20.90640 104.0
20.92140 100.0
20.93640 105.0
20.95140 105.0
20.96640 120.0
20.98140 93.0
20.99640 106.0
21.01140 86.0
21.02640 83.0
21.04140 108.0
21.05640 103.0
21.07140 98.0
21.08640 89.0
21.10140 99.0
21.11640 73.0
21.13140 90.0
21.14640 88.0
21.16140 86.0
21.17640 109.0
21.19140 92.0
21.20640 101.0
21.22140 84.0
21.23640 98.0
21.25140 84.0
21.26640 65.0
21.28140 80.0
21.29640 92.0
21.31140 89.0
21.32640 85.0
21.34140 87.0
21.35640 90.0
21.37140 83.0
21.38640 85.0
21.40140 71.0
21.41640 80.0
21.43140 72.0
21.44640 78.0
21.46140 75.0
21.47640 66.0
21.49140 82.0