Folder: DataAnalysis/data/W6908a/XRD_Omega

Note: data/W6908a/XRD_Omega/W6908a_omega_peaks.TXT
No.	Label	Pos. [記mega]	FWHM Left [記mega]	Area [cts*記mega]	Backgr.[cts]	d-spacing [魔	Height [cts]	Shape Left	Status	Integral Breadth [記mega]	FWHM Right [記mega]	Shape Right	Obs. Lorentz B [記mega]	Obs. Gauss B [記mega]	Instr. Lorentz B [記mega]	Instr. Gauss B [記mega]	Crystallite Size [魔	Micro Strain [%]	Crystallite Size only [魔	Micro Strain only [%]
1	Cr2O3 1 1 0	17,854(1)	0,322(6)	147,74	51,96	 	292(3)	1,00(2)	Included	0,506402	 	 	0,504026	0,008552	0,075460	0,063923	208,490900	-0,175972	208,479600	1,190552

Note: README.md
# Methods
## RSM analysis

Check out [doc](documentation/RSM.md)

File: scan_omega_4deg_step_0.005deg0_C9_1.xy
15.87720 50.0
15.89220 52.0
15.90720 49.0
15.92220 51.0
15.93720 47.0
15.95220 54.0
15.96720 67.0
15.98220 69.0
15.99720 42.0
16.01220 36.0
16.02720 48.0
16.04220 39.0
16.05720 54.0
16.07220 47.0
16.08720 52.0
16.10220 46.0
16.11720 53.0
16.13220 68.0
16.14720 52.0
16.16220 50.0
16.17720 40.0
16.19220 58.0
16.20720 64.0
16.22220 41.0
16.23720 53.0
16.25220 56.0
16.26720 65.0
16.28220 57.0
16.29720 54.0
16.31220 45.0
16.32720 48.0
16.34220 43.0
16.35720 51.0
16.37220 51.0
16.38720 41.0
16.40220 59.0
16.41720 56.0
16.43220 57.0
16.44720 60.0
16.46220 46.0
16.47720 53.0
16.49220 56.0
16.50720 48.0
16.52220 60.0
16.53720 59.0
16.55220 55.0
16.56720 56.0
16.58220 57.0
16.59720 56.0
16.61220 61.0
16.62720 45.0
16.64220 51.0
16.65720 44.0
16.67220 55.0
16.68720 61.0
16.70220 41.0
16.71720 67.0
16.73220 67.0
16.74720 54.0
16.76220 53.0
16.77720 65.0
16.79220 60.0
16.80720 63.0
16.82220 56.0
16.83720 48.0
16.85220 53.0
16.86720 70.0
16.88220 66.0
16.89720 60.0
16.91220 52.0
16.92720 65.0
16.94220 55.0
16.95720 70.0
16.97220 60.0
16.98720 58.0
17.00220 48.0
17.01720 65.0
17.03220 77.0
17.04720 56.0
17.06220 60.0
17.07720 81.0
17.09220 63.0
17.10720 72.0
17.12220 56.0
17.13720 66.0
17.15220 67.0
17.16720 61.0
17.18220 75.0
17.19720 75.0
17.21220 74.0
17.22720 89.0
17.24220 75.0
17.25720 93.0
17.27220 79.0
17.28720 74.0
17.30220 104.0
17.31720 102.0
17.33220 89.0
17.34720 102.0
17.36220 91.0
17.37720 98.0
17.39220 106.0
17.40720 102.0
17.42220 94.0
17.43720 108.0
17.45220 125.0
17.46720 125.0
17.48220 125.0
17.49720 121.0
17.51220 146.0
17.52720 138.0
17.54220 130.0
17.55720 131.0
17.57220 145.0
17.58720 158.0
17.60220 175.0
17.61720 174.0
17.63220 168.0
17.64720 170.0
17.66220 189.0
17.67720 199.0
17.69220 204.0
17.70720 257.0
17.72220 295.0
17.73720 362.0
17.75220 435.0
17.76720 393.0
17.78220 436.0
17.79720 418.0
17.81220 464.0
17.82720 438.0
17.84220 429.0
17.85720 457.0
17.87220 474.0
17.88720 480.0
17.90220 462.0
17.91720 455.0
17.93220 456.0
17.94720 451.0
17.96220 413.0
17.97720 373.0
17.99220 319.0
18.00720 271.0
18.02220 245.0
18.03720 217.0
18.05220 200.0
18.06720 216.0
18.08220 209.0
18.09720 203.0
18.11220 182.0
18.12720 202.0
18.14220 155.0
18.15720 174.0
18.17220 147.0
18.18720 160.0
18.20220 128.0
18.21720 142.0
18.23220 136.0
18.24720 150.0
18.26220 152.0
18.27720 113.0
18.29220 130.0
18.30720 98.0
18.32220 129.0
18.33720 115.0
18.35220 99.0
18.36720 88.0
18.38220 88.0
18.39720 96.0
18.41220 96.0
18.42720 83.0
18.44220 91.0
18.45720 77.0
18.47220 82.0
18.48720 60.0
18.50220 80.0
18.51720 85.0
18.53220 75.0
18.54720 74.0
18.56220 87.0
18.57720 108.0
18.59220 126.0
18.60720 125.0
18.62220 100.0
18.63720 84.0
18.65220 69.0
18.66720 71.0
18.68220 67.0
18.69720 67.0
18.71220 59.0
18.72720 79.0
18.74220 46.0
18.75720 82.0
18.77220 72.0
18.78720 65.0
18.80220 72.0
18.81720 64.0
18.83220 66.0
18.84720 55.0
18.86220 53.0
18.87720 67.0
18.89220 49.0
18.90720 48.0
18.92220 57.0
18.93720 50.0
18.95220 50.0
18.96720 66.0
18.98220 47.0
18.99720 49.0
19.01220 43.0
19.02720 57.0
19.04220 53.0
19.05720 47.0
19.07220 50.0
19.08720 52.0
19.10220 35.0
19.11720 41.0
19.13220 52.0
19.14720 57.0
19.16220 51.0
19.17720 53.0
19.19220 42.0
19.20720 56.0
19.22220 40.0
19.23720 45.0
19.25220 56.0
19.26720 46.0
19.28220 51.0
19.29720 52.0
19.31220 45.0
19.32720 39.0
19.34220 51.0
19.35720 55.0
19.37220 44.0
19.38720 53.0
19.40220 49.0
19.41720 35.0
19.43220 44.0
19.44720 53.0
19.46220 61.0
19.47720 56.0
19.49220 46.0
19.50720 46.0
19.52220 53.0
19.53720 38.0
19.55220 49.0
19.56720 56.0
19.58220 48.0
19.59720 61.0
19.61220 45.0
19.62720 33.0
19.64220 49.0
19.65720 32.0
19.67220 44.0
19.68720 44.0
19.70220 44.0
19.71720 39.0
19.73220 41.0
19.74720 44.0
19.76220 47.0
19.77720 44.0
19.79220 42.0
19.80720 56.0
19.82220 41.0
19.83720 45.0