Folder: DataAnalysis/data/W6908a/XRD_2ThetaOmega

Note: data/W6908a/XRD_2ThetaOmega/W6908a_peaks.TXT
No.	Label	Pos. [°2Th.]	FWHM Left [°2Th.]	Area [cts*°2Th.]	Backgr.[cts]	d-spacing [Å]	Height [cts]	Shape Left	Status	Integral Breadth [°2Th.]	FWHM Right [°2Th.]	Shape Right	Obs. Lorentz B [°2Th.]	Obs. Gauss B [°2Th.]	Instr. Lorentz B [°2Th.]	Instr. Gauss B [°2Th.]	Crystallite Size [Å]	Micro Strain [%]	Crystallite Size only [Å]	Micro Strain only [%]
1	Cr2O3 1 1 0	36,154(2)	0,632(9)	301,27	162,97	2,48245	316(3)	0,91(3)	Included	0,953255	 	 	0,877863	0,223655	0,073947	0,062645	115,500900	0,287006	106,107000	1,169784
2	Al2O3 1 1 0	37,65793(1)	0,04740(3)	18234,50	216,78	2,38672	322290(199)	0,3358(8)	Included	0,056578	 	 	0,021054	0,042121	0,073931	0,062631	-1763,726000	-0,059312	29488,250000	0,004047

Note: README.md
# Methods
## RSM analysis

Check out [doc](documentation/RSM.md)

File: scan_2th-om_a_Cr2O3_30-40deg_PIXscan_4min_9.xy
30.0025 73.0
30.0369 77.0
30.0714 90.0
30.1059 80.0
30.1403 95.0
30.1748 88.0
30.2093 74.0
30.2437 94.0
30.2782 77.0
30.3127 70.0
30.3471 67.0
30.3816 89.0
30.4161 93.0
30.4505 75.0
30.485 78.0
30.5195 73.0
30.5539 84.0
30.5884 77.0
30.6229 93.0
30.6573 69.0
30.6918 69.0
30.7263 95.0
30.7607 74.0
30.7952 81.0
30.8297 88.0
30.8641 73.0
30.8986 87.0
30.9331 87.0
30.9675 87.0
31.002 78.0
31.0365 70.0
31.0709 81.0
31.1054 77.0
31.1399 89.0
31.1743 71.0
31.2088 74.0
31.2433 64.0
31.2777 80.0
31.3122 90.0
31.3467 77.0
31.3811 85.0
31.4156 66.0
31.4501 83.0
31.4845 95.0
31.519 87.0
31.5535 79.0
31.5879 76.0
31.6224 78.0
31.6569 100.0
31.6913 81.0
31.7258 71.0
31.7603 85.0
31.7947 88.0
31.8292 68.0
31.8637 86.0
31.8981 73.0
31.9326 78.0
31.9671 83.0
32.0015 73.0
32.036 79.0
32.0705 67.0
32.1049 81.0
32.1394 74.0
32.1739 76.0
32.2083 98.0
32.2428 73.0
32.2773 87.0
32.3118 77.0
32.3462 80.0
32.3807 86.0
32.4152 68.0
32.4496 63.0
32.4841 80.0
32.5186 96.0
32.553 72.0
32.5875 85.0
32.622 89.0
32.6564 85.0
32.6909 85.0
32.7254 97.0
32.7598 81.0
32.7943 80.0
32.8288 75.0
32.8632 83.0
32.8977 71.0
32.9322 88.0
32.9666 92.0
33.0011 82.0
33.0356 82.0
33.07 69.0
33.1045 73.0
33.139 100.0
33.1734 88.0
33.2079 80.0
33.2424 71.0
33.2768 88.0
33.3113 99.0
33.3458 90.0
33.3802 84.0
33.4147 83.0
33.4492 85.0
33.4836 80.0
33.5181 68.0
33.5526 91.0
33.587 80.0
33.6215 80.0
33.656 84.0
33.6904 96.0
33.7249 92.0
33.7594 86.0
33.7938 107.0
33.8283 129.0
33.8628 393.0
33.8972 1314.0
33.9317 770.0
33.9662 206.0
34.0006 154.0
34.0351 119.0
34.0696 121.0
34.104 94.0
34.1385 110.0
34.173 94.0
34.2074 112.0
34.2419 104.0
34.2764 116.0
34.3108 112.0
34.3453 84.0
34.3798 96.0
34.4142 98.0
34.4487 110.0
34.4832 102.0
34.5176 89.0
34.5521 90.0
34.5866 103.0
34.621 89.0
34.6555 88.0
34.69 105.0
34.7244 85.0
34.7589 92.0
34.7934 80.0
34.8278 91.0
34.8623 93.0
34.8968 106.0
34.9312 116.0
34.9657 96.0
35.0002 96.0
35.0346 107.0
35.0691 112.0
35.1036 118.0
35.138 110.0
35.1725 120.0
35.207 98.0
35.2414 112.0
35.2759 98.0
35.3104 107.0
35.3448 108.0
35.3793 117.0
35.4138 103.0
35.4482 112.0
35.4827 144.0
35.5172 142.0
35.5516 144.0
35.5861 181.0
35.6206 190.0
35.655 243.0
35.6895 281.0
35.724 297.0
35.7584 320.0
35.7929 395.0
35.8274 415.0
35.8619 469.0
35.8963 507.0
35.9308 499.0
35.9653 532.0
35.9997 601.0
36.0342 607.0
36.0687 597.0
36.1031 655.0
36.1376 642.0
36.1721 652.0
36.2065 614.0
36.241 662.0
36.2755 610.0
36.3099 680.0
36.3444 639.0
36.3789 586.0
36.4133 612.0
36.4478 537.0
36.4823 457.0
36.5167 409.0
36.5512 408.0
36.5857 365.0
36.6201 408.0
36.6546 385.0
36.6891 345.0
36.7235 349.0
36.758 392.0
36.7925 364.0
36.8269 363.0
36.8614 361.0
36.8959 372.0
36.9303 384.0
36.9648 384.0
36.9993 435.0
37.0337 414.0
37.0682 476.0
37.1027 523.0
37.1371 503.0
37.1716 568.0
37.2061 623.0
37.2405 704.0
37.275 768.0
37.3095 865.0
37.3439 965.0
37.3784 1065.0
37.4129 1447.0
37.4473 2182.0
37.4818 3424.0
37.5163 4081.0
37.5507 4764.0
37.5852 9518.0
37.6197 51916.0
37.6541 286432.0
37.6886 97663.0
37.7231 60903.0
37.7575 149524.0
37.792 34518.0
37.8265 6887.0
37.8609 3668.0
37.8954 2606.0
37.9299 1828.0
37.9643 1514.0
37.9988 1322.0
38.0333 1102.0
38.0677 929.0
38.1022 929.0
38.1367 789.0
38.1711 744.0
38.2056 614.0
38.2401 558.0
38.2745 529.0
38.309 442.0
38.3435 407.0
38.3779 404.0
38.4124 362.0
38.4469 354.0
38.4813 309.0
38.5158 301.0
38.5503 213.0
38.5847 196.0
38.6192 188.0
38.6537 179.0
38.6881 155.0
38.7226 161.0
38.7571 161.0
38.7915 143.0
38.826 154.0
38.8605 153.0
38.8949 135.0
38.9294 151.0
38.9639 167.0
38.9983 134.0
39.0328 131.0
39.0673 119.0
39.1017 113.0
39.1362 132.0
39.1707 111.0
39.2051 119.0
39.2396 112.0
39.2741 89.0
39.3085 102.0
39.343 108.0
39.3775 122.0
39.412 101.0
39.4464 98.0
39.4809 106.0
39.5154 101.0
39.5498 99.0
39.5843 104.0
39.6188 108.0
39.6532 111.0
39.6877 102.0
39.7222 109.0
39.7566 92.0
39.7911 105.0
39.8256 101.0
39.86 94.0
39.8945 98.0
39.929 89.0
39.9634 92.0
39.9979 90.0