Folder: DataAnalysis/data/W6904m/XRD_Omega

Note: data/W6904m/XRD_Omega/W6904m_omega_peaks.TXT
No.	Pos. [記mega]	FWHM Left [記mega]	Area [cts*記mega]	Backgr.[cts]	d-spacing [魔	Height [cts]	Shape Left	Status	Integral Breadth [記mega]	FWHM Right [記mega]	Shape Right	Obs. Lorentz B [記mega]	Obs. Gauss B [記mega]	Instr. Lorentz B [記mega]	Instr. Gauss B [記mega]	Crystallite Size [魔	Micro Strain [%]	Crystallite Size only [魔	Micro Strain only [%]
1	31,936(1)	0,893(3)	579,18	71,95	 	547(2)	0,318(9)	Included	1,058694	 	 	0,374610	0,802190	0,074087	0,062763	305,508800	1,219483	91,651720	1,527539

Note: README.md
# Methods
## RSM analysis

Check out [doc](documentation/RSM.md)

File: scan_omega_4deg_step_0.005deg0_C5_2.xy
29.90670 74.0
29.92170 67.0
29.93670 95.0
29.95170 80.0
29.96670 85.0
29.98170 75.0
29.99670 86.0
30.01170 87.0
30.02670 83.0
30.04170 92.0
30.05670 66.0
30.07170 73.0
30.08670 88.0
30.10170 90.0
30.11670 82.0
30.13170 60.0
30.14670 78.0
30.16170 82.0
30.17670 104.0
30.19170 91.0
30.20670 99.0
30.22170 97.0
30.23670 81.0
30.25170 79.0
30.26670 88.0
30.28170 77.0
30.29670 89.0
30.31170 98.0
30.32670 75.0
30.34170 75.0
30.35670 90.0
30.37170 91.0
30.38670 84.0
30.40170 80.0
30.41670 72.0
30.43170 81.0
30.44670 79.0
30.46170 84.0
30.47670 93.0
30.49170 77.0
30.50670 107.0
30.52170 77.0
30.53670 91.0
30.55170 99.0
30.56670 76.0
30.58170 76.0
30.59670 85.0
30.61170 80.0
30.62670 102.0
30.64170 93.0
30.65670 76.0
30.67170 109.0
30.68670 85.0
30.70170 100.0
30.71670 95.0
30.73170 104.0
30.74670 97.0
30.76170 120.0
30.77670 93.0
30.79170 104.0
30.80670 107.0
30.82170 134.0
30.83670 92.0
30.85170 91.0
30.86670 100.0
30.88170 106.0
30.89670 91.0
30.91170 112.0
30.92670 113.0
30.94170 128.0
30.95670 111.0
30.97170 129.0
30.98670 111.0
31.00170 147.0
31.01670 121.0
31.03170 118.0
31.04670 147.0
31.06170 146.0
31.07670 146.0
31.09170 161.0
31.10670 155.0
31.12170 154.0
31.13670 159.0
31.15170 158.0
31.16670 168.0
31.18170 203.0
31.19670 190.0
31.21170 191.0
31.22670 212.0
31.24170 219.0
31.25670 205.0
31.27170 217.0
31.28670 210.0
31.30170 277.0
31.31670 270.0
31.33170 268.0
31.34670 295.0
31.36170 265.0
31.37670 304.0
31.39170 333.0
31.40670 355.0
31.42170 336.0
31.43670 355.0
31.45170 411.0
31.46670 446.0
31.48170 450.0
31.49670 518.0
31.51170 501.0
31.52670 516.0
31.54170 530.0
31.55670 581.0
31.57170 516.0
31.58670 587.0
31.60170 631.0
31.61670 627.0
31.63170 664.0
31.64670 710.0
31.66170 728.0
31.67670 709.0
31.69170 758.0
31.70670 730.0
31.72170 773.0
31.73670 830.0
31.75170 862.0
31.76670 867.0
31.78170 877.0
31.79670 844.0
31.81170 941.0
31.82670 849.0
31.84170 916.0
31.85670 941.0
31.87170 905.0
31.88670 939.0
31.90170 912.0
31.91670 870.0
31.93170 856.0
31.94670 890.0
31.96170 881.0
31.97670 802.0
31.99170 852.0
32.00670 879.0
32.02170 805.0
32.03670 775.0
32.05170 773.0
32.06670 833.0
32.08170 757.0
32.09670 748.0
32.11170 764.0
32.12670 732.0
32.14170 772.0
32.15670 733.0
32.17170 717.0
32.18670 695.0
32.20170 715.0
32.21670 651.0
32.23170 652.0
32.24670 649.0
32.26170 689.0
32.27670 615.0
32.29170 647.0
32.30670 644.0
32.32170 635.0
32.33670 584.0
32.35170 561.0
32.36670 538.0
32.38170 594.0
32.39670 554.0
32.41170 527.0
32.42670 486.0
32.44170 474.0
32.45670 437.0
32.47170 450.0
32.48670 412.0
32.50170 392.0
32.51670 333.0
32.53170 363.0
32.54670 337.0
32.56170 317.0
32.57670 306.0
32.59170 309.0
32.60670 271.0
32.62170 242.0
32.63670 272.0
32.65170 246.0
32.66670 260.0
32.68170 239.0
32.69670 240.0
32.71170 210.0
32.72670 215.0
32.74170 200.0
32.75670 186.0
32.77170 178.0
32.78670 190.0
32.80170 167.0
32.81670 190.0
32.83170 190.0
32.84670 165.0
32.86170 174.0
32.87670 165.0
32.89170 163.0
32.90670 146.0
32.92170 153.0
32.93670 166.0
32.95170 153.0
32.96670 132.0
32.98170 153.0
32.99670 131.0
33.01170 128.0
33.02670 148.0
33.04170 121.0
33.05670 120.0
33.07170 109.0
33.08670 109.0
33.10170 89.0
33.11670 121.0
33.13170 105.0
33.14670 102.0
33.16170 121.0
33.17670 107.0
33.19170 104.0
33.20670 110.0
33.22170 133.0
33.23670 115.0
33.25170 93.0
33.26670 92.0
33.28170 88.0
33.29670 108.0
33.31170 88.0
33.32670 86.0
33.34170 97.0
33.35670 69.0
33.37170 101.0
33.38670 97.0
33.40170 79.0
33.41670 96.0
33.43170 93.0
33.44670 101.0
33.46170 71.0
33.47670 101.0
33.49170 80.0
33.50670 86.0
33.52170 82.0
33.53670 70.0
33.55170 93.0
33.56670 79.0
33.58170 98.0
33.59670 78.0
33.61170 96.0
33.62670 67.0
33.64170 95.0
33.65670 81.0
33.67170 85.0
33.68670 81.0
33.70170 95.0
33.71670 83.0
33.73170 77.0
33.74670 57.0
33.76170 72.0
33.77670 86.0
33.79170 87.0
33.80670 82.0
33.82170 81.0
33.83670 77.0
33.85170 66.0
33.86670 70.0