Folder: DataAnalysis/data/W6904m/XRD_2ThetaOmega

Note: data/W6904m/XRD_2ThetaOmega/W6904m_peaks.TXT
No.	Label	Pos. [°2Th.]	FWHM Left [°2Th.]	Area [cts*°2Th.]	Backgr.[cts]	d-spacing [Å]	Height [cts]	Shape Left	Status	Integral Breadth [°2Th.]	FWHM Right [°2Th.]	Shape Right	Obs. Lorentz B [°2Th.]	Obs. Gauss B [°2Th.]	Instr. Lorentz B [°2Th.]	Instr. Gauss B [°2Th.]	Crystallite Size [Å]	Micro Strain [%]	Crystallite Size only [Å]	Micro Strain only [%]
1	Cr2O3 3 0 0	64,826(1)	0,480(3)	338,68	230,89	1,43707	663(4)	0,00(2)	Included	0,510456	 	 	0,001249	0,510456	0,077421	0,065589	-1372,678000	0,347878	206,524800	0,347917
2	Al2O3 3 0 0	68,16576(1)	0,06039(4)	27655,11	261,52	1,37457	354272(196)	0,5475(8)	Included	0,078062	 	 	0,045777	0,045384	0,078472	0,066479	-3259,765000	-0,031327	33698,730000	0,002040

Note: README.md
# Methods
## RSM analysis

Check out [doc](documentation/RSM.md)

File: scan_2th-om_m_Cr2O3_55-75deg_PIXscan_4min_C5.xy
55.0019 127.0
55.0708 140.0
55.1397 117.0
55.2087 156.0
55.2776 130.0
55.3465 150.0
55.4155 136.0
55.4844 127.0
55.5533 136.0
55.6223 131.0
55.6912 132.0
55.7601 130.0
55.8291 136.0
55.898 117.0
55.9669 144.0
56.0359 143.0
56.1048 139.0
56.1737 142.0
56.2427 116.0
56.3116 125.0
56.3805 135.0
56.4495 137.0
56.5184 157.0
56.5873 136.0
56.6563 146.0
56.7252 159.0
56.7941 141.0
56.8631 155.0
56.932 124.0
57.0009 140.0
57.0699 142.0
57.1388 129.0
57.2077 114.0
57.2767 146.0
57.3456 167.0
57.4146 135.0
57.4835 147.0
57.5524 130.0
57.6214 128.0
57.6903 137.0
57.7592 116.0
57.8282 142.0
57.8971 139.0
57.966 131.0
58.035 149.0
58.1039 155.0
58.1728 125.0
58.2418 145.0
58.3107 118.0
58.3796 135.0
58.4486 144.0
58.5175 124.0
58.5864 137.0
58.6554 135.0
58.7243 150.0
58.7932 134.0
58.8622 111.0
58.9311 130.0
59 126.0
59.069 130.0
59.1379 136.0
59.2068 167.0
59.2758 120.0
59.3447 135.0
59.4136 124.0
59.4826 138.0
59.5515 133.0
59.6204 140.0
59.6894 141.0
59.7583 127.0
59.8272 141.0
59.8962 149.0
59.9651 148.0
60.034 132.0
60.103 137.0
60.1719 154.0
60.2408 126.0
60.3098 171.0
60.3787 146.0
60.4476 178.0
60.5166 156.0
60.5855 173.0
60.6544 182.0
60.7234 181.0
60.7923 514.0
60.8613 1167.0
60.9302 570.0
60.9991 218.0
61.0681 179.0
61.137 204.0
61.2059 183.0
61.2749 160.0
61.3438 157.0
61.4127 152.0
61.4817 156.0
61.5506 158.0
61.6195 151.0
61.6885 138.0
61.7574 183.0
61.8263 135.0
61.8953 124.0
61.9642 150.0
62.0331 158.0
62.1021 152.0
62.171 165.0
62.2399 156.0
62.3089 155.0
62.3778 138.0
62.4467 154.0
62.5157 133.0
62.5846 132.0
62.6535 160.0
62.7225 168.0
62.7914 173.0
62.8603 171.0
62.9293 151.0
62.9982 156.0
63.0671 160.0
63.1361 143.0
63.205 176.0
63.2739 152.0
63.3429 134.0
63.4118 152.0
63.4807 152.0
63.5497 200.0
63.6186 164.0
63.6875 177.0
63.7565 167.0
63.8254 207.0
63.8943 181.0
63.9633 208.0
64.0322 223.0
64.1011 224.0
64.1701 255.0
64.239 226.0
64.3079 281.0
64.3769 311.0
64.4458 347.0
64.5148 414.0
64.5837 574.0
64.6526 690.0
64.7216 906.0
64.7905 1056.0
64.8594 1172.0
64.9284 1177.0
64.9973 1113.0
65.0662 855.0
65.1352 739.0
65.2041 522.0
65.273 427.0
65.342 335.0
65.4109 319.0
65.4798 229.0
65.5488 237.0
65.6177 199.0
65.6866 213.0
65.7556 222.0
65.8245 206.0
65.8934 222.0
65.9624 228.0
66.0313 223.0
66.1002 268.0
66.1692 233.0
66.2381 263.0
66.307 259.0
66.376 272.0
66.4449 317.0
66.5138 313.0
66.5828 336.0
66.6517 351.0
66.7206 388.0
66.7896 368.0
66.8585 455.0
66.9274 479.0
66.9964 460.0
67.0653 461.0
67.1342 509.0
67.2032 580.0
67.2721 609.0
67.341 624.0
67.41 704.0
67.4789 792.0
67.5478 832.0
67.6168 989.0
67.6857 1254.0
67.7546 2017.0
67.8236 3344.0
67.8925 3470.0
67.9615 4046.0
68.0304 7771.0
68.0993 32140.0
68.1683 338266.0
68.2372 32850.0
68.3061 38093.0
68.3751 149217.0
68.444 11658.0
68.5129 4943.0
68.5819 2991.0
68.6508 2165.0
68.7197 1644.0
68.7887 1321.0
68.8576 1021.0
68.9265 910.0
68.9955 856.0
69.0644 688.0
69.1333 646.0
69.2023 596.0
69.2712 489.0
69.3401 464.0
69.4091 424.0
69.478 361.0
69.5469 360.0
69.6159 267.0
69.6848 306.0
69.7537 275.0
69.8227 221.0
69.8916 263.0
69.9605 255.0
70.0295 222.0
70.0984 230.0
70.1673 209.0
70.2363 227.0
70.3052 212.0
70.3741 202.0
70.4431 199.0
70.512 203.0
70.5809 174.0
70.6499 169.0
70.7188 183.0
70.7877 171.0
70.8567 160.0
70.9256 183.0
70.9945 178.0
71.0635 186.0
71.1324 166.0
71.2013 162.0
71.2703 142.0
71.3392 151.0
71.4082 176.0
71.4771 164.0
71.546 177.0
71.615 159.0
71.6839 150.0
71.7528 143.0
71.8218 140.0
71.8907 151.0
71.9596 137.0
72.0286 156.0
72.0975 152.0
72.1664 153.0
72.2354 133.0
72.3043 138.0
72.3732 133.0
72.4422 161.0
72.5111 155.0
72.58 165.0
72.649 155.0
72.7179 165.0
72.7868 147.0
72.8558 138.0
72.9247 138.0
72.9936 147.0
73.0626 155.0
73.1315 146.0
73.2004 123.0
73.2694 131.0
73.3383 144.0
73.4072 133.0
73.4762 143.0
73.5451 141.0
73.614 148.0
73.683 131.0
73.7519 144.0
73.8208 149.0
73.8898 142.0
73.9587 153.0
74.0276 141.0
74.0966 144.0
74.1655 149.0
74.2344 140.0
74.3034 155.0
74.3723 134.0
74.4412 158.0
74.5102 141.0
74.5791 134.0
74.648 143.0
74.717 148.0
74.7859 144.0
74.8548 148.0
74.9238 151.0
74.9927 140.0
74.9976 133.0