Folder: DataAnalysis/data/W6816r1/XRD_Omega

Note: data/W6816r1/XRD_Omega/W6816r1_omega_peaks.TXT
No.	Label	Pos. [記mega]	FWHM Left [記mega]	Area [cts*記mega]	Backgr.[cts]	d-spacing [魔	Height [cts]	Shape Left	Status	Integral Breadth [記mega]	FWHM Right [記mega]	Shape Right	Obs. Lorentz B [記mega]	Obs. Gauss B [記mega]	Instr. Lorentz B [記mega]	Instr. Gauss B [記mega]	Crystallite Size [魔	Micro Strain [%]	Crystallite Size only [魔	Micro Strain only [%]
1	Cr2O3 0 2 4	24,752(2)	1,034(5)	428,00	33,49	 	337(2)	0,41(1)	Included	1,269121	 	 	0,572379	0,871031	0,074623	0,063215	181,554400	1,727486	74,513780	2,411651

Note: README.md
# Methods
## RSM analysis

Check out [doc](documentation/RSM.md)

File: w6816r1_scan_omega.xy
22.74820 35.0
22.76320 40.0
22.77820 46.0
22.79320 38.0
22.80820 37.0
22.82320 36.0
22.83820 52.0
22.85320 39.0
22.86820 37.0
22.88320 33.0
22.89820 43.0
22.91320 44.0
22.92820 47.0
22.94320 38.0
22.95820 41.0
22.97320 50.0
22.98820 39.0
23.00320 49.0
23.01820 43.0
23.03320 46.0
23.04820 39.0
23.06320 37.0
23.07820 36.0
23.09320 46.0
23.10820 41.0
23.12320 48.0
23.13820 52.0
23.15320 51.0
23.16820 51.0
23.18320 48.0
23.19820 46.0
23.21320 53.0
23.22820 49.0
23.24320 55.0
23.25820 45.0
23.27320 47.0
23.28820 45.0
23.30320 62.0
23.31820 41.0
23.33320 65.0
23.34820 54.0
23.36320 54.0
23.37820 68.0
23.39320 65.0
23.40820 55.0
23.42320 63.0
23.43820 66.0
23.45320 60.0
23.46820 76.0
23.48320 76.0
23.49820 73.0
23.51320 69.0
23.52820 85.0
23.54320 65.0
23.55820 83.0
23.57320 86.0
23.58820 74.0
23.60320 85.0
23.61820 75.0
23.63320 63.0
23.64820 89.0
23.66320 98.0
23.67820 85.0
23.69320 70.0
23.70820 93.0
23.72320 84.0
23.73820 75.0
23.75320 93.0
23.76820 116.0
23.78320 86.0
23.79820 130.0
23.81320 102.0
23.82820 100.0
23.84320 120.0
23.85820 133.0
23.87320 126.0
23.88820 130.0
23.90320 134.0
23.91820 120.0
23.93320 137.0
23.94820 159.0
23.96320 142.0
23.97820 164.0
23.99320 168.0
24.00820 163.0
24.02320 162.0
24.03820 189.0
24.05320 190.0
24.06820 165.0
24.08320 205.0
24.09820 211.0
24.11320 227.0
24.12820 201.0
24.14320 204.0
24.15820 221.0
24.17320 204.0
24.18820 224.0
24.20320 256.0
24.21820 257.0
24.23320 303.0
24.24820 267.0
24.26320 268.0
24.27820 287.0
24.29320 281.0
24.30820 301.0
24.32320 314.0
24.33820 330.0
24.35320 288.0
24.36820 332.0
24.38320 344.0
24.39820 352.0
24.41320 375.0
24.42820 380.0
24.44320 442.0
24.45820 374.0
24.47320 394.0
24.48820 431.0
24.50320 393.0
24.51820 461.0
24.53320 475.0
24.54820 449.0
24.56320 473.0
24.57820 513.0
24.59320 495.0
24.60820 482.0
24.62320 514.0
24.63820 573.0
24.65320 546.0
24.66820 539.0
24.68320 542.0
24.69820 558.0
24.71320 583.0
24.72820 575.0
24.74320 582.0
24.75820 584.0
24.77320 579.0
24.78820 585.0
24.80320 614.0
24.81820 598.0
24.83320 633.0
24.84820 594.0
24.86320 620.0
24.87820 582.0
24.89320 511.0
24.90820 515.0
24.92320 469.0
24.93820 492.0
24.95320 488.0
24.96820 507.0
24.98320 469.0
24.99820 454.0
25.01320 408.0
25.02820 425.0
25.04320 456.0
25.05820 427.0
25.07320 403.0
25.08820 399.0
25.10320 372.0
25.11820 372.0
25.13320 390.0
25.14820 338.0
25.16320 357.0
25.17820 350.0
25.19320 334.0
25.20820 342.0
25.22320 299.0
25.23820 301.0
25.25320 292.0
25.26820 268.0
25.28320 274.0
25.29820 259.0
25.31320 273.0
25.32820 262.0
25.34320 228.0
25.35820 230.0
25.37320 231.0
25.38820 231.0
25.40320 213.0
25.41820 211.0
25.43320 198.0
25.44820 206.0
25.46320 201.0
25.47820 176.0
25.49320 189.0
25.50820 168.0
25.52320 170.0
25.53820 166.0
25.55320 169.0
25.56820 143.0
25.58320 148.0
25.59820 150.0
25.61320 115.0
25.62820 128.0
25.64320 121.0
25.65820 130.0
25.67320 156.0
25.68820 117.0
25.70320 106.0
25.71820 107.0
25.73320 116.0
25.74820 108.0
25.76320 123.0
25.77820 101.0
25.79320 121.0
25.80820 106.0
25.82320 107.0
25.83820 103.0
25.85320 86.0
25.86820 91.0
25.88320 94.0
25.89820 79.0
25.91320 86.0
25.92820 74.0
25.94320 77.0
25.95820 66.0
25.97320 72.0
25.98820 68.0
26.00320 71.0
26.01820 70.0
26.03320 51.0
26.04820 63.0
26.06320 49.0
26.07820 67.0
26.09320 61.0
26.10820 52.0
26.12320 58.0
26.13820 62.0
26.15320 42.0
26.16820 39.0
26.18320 53.0
26.19820 47.0
26.21320 54.0
26.22820 49.0
26.24320 59.0
26.25820 52.0
26.27320 55.0
26.28820 53.0
26.30320 44.0
26.31820 37.0
26.33320 56.0
26.34820 52.0
26.36320 47.0
26.37820 39.0
26.39320 35.0
26.40820 41.0
26.42320 48.0
26.43820 42.0
26.45320 35.0
26.46820 36.0
26.48320 35.0
26.49820 42.0
26.51320 44.0
26.52820 40.0
26.54320 32.0
26.55820 51.0
26.57320 43.0
26.58820 43.0
26.60320 41.0
26.61820 36.0
26.63320 40.0
26.64820 41.0
26.66320 40.0
26.67820 36.0
26.69320 37.0
26.70820 42.0
26.72320 22.0
26.72820 42.0