Folder: DataAnalysis/data/W6853c/XRD_Omega

Note: data/W6853c/XRD_Omega/W6853c_omega_peaks.TXT
No.	Label	Pos. [記mega]	FWHM Left [記mega]	Area [cts*記mega]	Backgr.[cts]	d-spacing [魔	Height [cts]	Shape Left	Status	Integral Breadth [記mega]	FWHM Right [記mega]	Shape Right	Obs. Lorentz B [記mega]	Obs. Gauss B [記mega]	Instr. Lorentz B [記mega]	Instr. Gauss B [記mega]	Crystallite Size [魔	Micro Strain [%]	Crystallite Size only [魔	Micro Strain only [%]
1	Cr2O3 0 0 6	19,8189(2)	0,6630(7)	3491,35	821,87	 	4621(5)	0,205(3)	Included	0,755503	 	 	0,175261	0,637959	0,075191	0,063696	895,437200	1,585426	128,053400	1,747743

Note: README.md
# Methods
## RSM analysis

Check out [doc](documentation/RSM.md)

File: W6853c_Cr2O3_scan_omega_2deg_step_0.002deg0_19.xy
18.84930 838.0
18.85730 851.0
18.86530 872.0
18.87330 906.0
18.88130 854.0
18.88930 883.0
18.89730 843.0
18.90530 967.0
18.91330 916.0
18.92130 962.0
18.92930 978.0
18.93730 951.0
18.94530 947.0
18.95330 979.0
18.96130 1005.0
18.96930 1056.0
18.97730 1024.0
18.98530 1064.0
18.99330 974.0
19.00130 1035.0
19.00930 1073.0
19.01730 1060.0
19.02530 1135.0
19.03330 1140.0
19.04130 1211.0
19.04930 1158.0
19.05730 1126.0
19.06530 1202.0
19.07330 1258.0
19.08130 1233.0
19.08930 1168.0
19.09730 1274.0
19.10530 1315.0
19.11330 1357.0
19.12130 1379.0
19.12930 1391.0
19.13730 1393.0
19.14530 1482.0
19.15330 1492.0
19.16130 1476.0
19.16930 1453.0
19.17730 1517.0
19.18530 1602.0
19.19330 1638.0
19.20130 1663.0
19.20930 1636.0
19.21730 1792.0
19.22530 1752.0
19.23330 1785.0
19.24130 1842.0
19.24930 1735.0
19.25730 1932.0
19.26530 1986.0
19.27330 2066.0
19.28130 1993.0
19.28930 2106.0
19.29730 2204.0
19.30530 2207.0
19.31330 2176.0
19.32130 2273.0
19.32930 2430.0
19.33730 2471.0
19.34530 2528.0
19.35330 2628.0
19.36130 2669.0
19.36930 2757.0
19.37730 2828.0
19.38530 2831.0
19.39330 2972.0
19.40130 2904.0
19.40930 3131.0
19.41730 3113.0
19.42530 3243.0
19.43330 3374.0
19.44130 3348.0
19.44930 3412.0
19.45730 3488.0
19.46530 3646.0
19.47330 3851.0
19.48130 3857.0
19.48930 3984.0
19.49730 3983.0
19.50530 4212.0
19.51330 4311.0
19.52130 4385.0
19.52930 4355.0
19.53730 4523.0
19.54530 4586.0
19.55330 4699.0
19.56130 5070.0
19.56930 5044.0
19.57730 4935.0
19.58530 5079.0
19.59330 5326.0
19.60130 5465.0
19.60930 5457.0
19.61730 5783.0
19.62530 5907.0
19.63330 5898.0
19.64130 6120.0
19.64930 6247.0
19.65730 6314.0
19.66530 6492.0
19.67330 6520.0
19.68130 6637.0
19.68930 6788.0
19.69730 7038.0
19.70530 7121.0
19.71330 7164.0
19.72130 7360.0
19.72930 7477.0
19.73730 7459.0
19.74530 7562.0
19.75330 7680.0
19.76130 7741.0
19.76930 7834.0
19.77730 7861.0
19.78530 7735.0
19.79330 7891.0
19.80130 8055.0
19.80930 7962.0
19.81730 7953.0
19.82530 8086.0
19.83330 8003.0
19.84130 8119.0
19.84930 8022.0
19.85730 7981.0
19.86530 8010.0
19.87330 7799.0
19.88130 7907.0
19.88930 7927.0
19.89730 7774.0
19.90530 7839.0
19.91330 7595.0
19.92130 7612.0
19.92930 7449.0
19.93730 7452.0
19.94530 7214.0
19.95330 7191.0
19.96130 7109.0
19.96930 7161.0
19.97730 6929.0
19.98530 6948.0
19.99330 6622.0
20.00130 6477.0
20.00930 6230.0
20.01730 6150.0
20.02530 6164.0
20.03330 6141.0
20.04130 6120.0
20.04930 5844.0
20.05730 5631.0
20.06530 5472.0
20.07330 5455.0
20.08130 5269.0
20.08930 5116.0
20.09730 5165.0
20.10530 4978.0
20.11330 4728.0
20.12130 4889.0
20.12930 4596.0
20.13730 4572.0
20.14530 4320.0
20.15330 4303.0
20.16130 4175.0
20.16930 4132.0
20.17730 3963.0
20.18530 3975.0
20.19330 3776.0
20.20130 3758.0
20.20930 3692.0
20.21730 3460.0
20.22530 3440.0
20.23330 3271.0
20.24130 3234.0
20.24930 3246.0
20.25730 3039.0
20.26530 2974.0
20.27330 2952.0
20.28130 2844.0
20.28930 2783.0
20.29730 2805.0
20.30530 2735.0
20.31330 2641.0
20.32130 2503.0
20.32930 2511.0
20.33730 2495.0
20.34530 2326.0
20.35330 2332.0
20.36130 2250.0
20.36930 2293.0
20.37730 2132.0
20.38530 2123.0
20.39330 2146.0
20.40130 2102.0
20.40930 1938.0
20.41730 1993.0
20.42530 2044.0
20.43330 1983.0
20.44130 1933.0
20.44930 1837.0
20.45730 1776.0
20.46530 1621.0
20.47330 1492.0
20.48130 1573.0
20.48930 1508.0
20.49730 1387.0
20.50530 1444.0
20.51330 1331.0
20.52130 1344.0
20.52930 1305.0
20.53730 1257.0
20.54530 1324.0
20.55330 1156.0
20.56130 1162.0
20.56930 1264.0
20.57730 1195.0
20.58530 1147.0
20.59330 1140.0
20.60130 1084.0
20.60930 1069.0
20.61730 1069.0
20.62530 1070.0
20.63330 1032.0
20.64130 966.0
20.64930 981.0
20.65730 1015.0
20.66530 989.0
20.67330 970.0
20.68130 931.0
20.68930 907.0
20.69730 902.0
20.70530 903.0
20.71330 888.0
20.72130 880.0
20.72930 867.0
20.73730 836.0
20.74530 868.0
20.75330 880.0
20.76130 877.0
20.76930 884.0
20.77730 816.0
20.78530 802.0
20.79330 767.0
20.80130 785.0
20.80930 834.0
20.81730 773.0
20.82530 797.0
20.83330 805.0