Folder: DataAnalysis/data/W6853c/XRD_2ThetaOmega

Note: data/W6853c/XRD_2ThetaOmega/W6853c_peaks.TXT
No.	Label	Pos. [°2Th.]	FWHM Left [°2Th.]	Area [cts*°2Th.]	Backgr.[cts]	d-spacing [Å]	Height [cts]	Shape Left	Status	Integral Breadth [°2Th.]	FWHM Right [°2Th.]	Shape Right	Obs. Lorentz B [°2Th.]	Obs. Gauss B [°2Th.]	Instr. Lorentz B [°2Th.]	Instr. Gauss B [°2Th.]	Crystallite Size [Å]	Micro Strain [%]	Crystallite Size only [Å]	Micro Strain only [%]
1	Cr2O3 0 0 6	39,5520(7)	0,214(5)	190,39	-10,01	2,27668	565(7)	1,00(2)	Included	0,336880	 	 	0,335299	0,005689	0,073936	0,062636	358,895200	-0,075699	358,842600	0,317225
2	Al2O3 0 0 6	41,61457(8)	0,0519(2)	379,30	15,93	2,16848	6321(26)	0,247(6)	Included	0,060001	 	 	0,016649	0,048742	0,073977	0,062671	-1647,152000	-0,045233	29857,520000	0,003631
3	Cr2O3 0 0 12	85,318(3)	0,62(1)	72,66	8,41	1,13674	80(2)	0,86(4)	Included	0,911502	 	 	0,796702	0,275490	0,086986	0,073689	169,124000	0,125698	144,419000	0,393558
4	Al2O3 0 0 12	90,67699(9)	0,0710(3)	699,56	17,62	1,08299	7521(27)	0,583(5)	Included	0,093014	 	 	0,057766	0,051441	0,090993	0,077081	-3779,431000	-0,024753	39706,290000	0,001364

Note: README.md
# Methods
## RSM analysis

Check out [doc](documentation/RSM.md)

File: W6853c_absolute_2th-om_10-130deg_PIXscan_17min_1.xy
10.0035 15.0
10.4072 28.0
10.811 20.0
11.2147 19.0
11.6185 15.0
12.0222 15.0
12.426 22.0
12.8298 14.0
13.2335 10.0
13.6373 20.0
14.041 21.0
14.4448 15.0
14.8485 22.0
15.2523 13.0
15.656 9.0
16.0598 16.0
16.4636 12.0
16.8673 13.0
17.2711 14.0
17.6748 14.0
18.0786 12.0
18.4823 14.0
18.8861 12.0
19.2899 20.0
19.6936 7.0
20.0974 3.0
20.5011 10.0
20.9049 14.0
21.3086 5.0
21.7124 13.0
22.1161 9.0
22.5199 13.0
22.9237 7.0
23.3274 9.0
23.7312 7.0
24.1349 7.0
24.5387 10.0
24.9424 3.0
25.3462 12.0
25.75 11.0
26.1537 7.0
26.5575 11.0
26.9612 16.0
27.365 10.0
27.7687 8.0
28.1725 6.0
28.5762 8.0
28.98 5.0
29.3838 9.0
29.7875 7.0
30.1913 10.0
30.595 11.0
30.9988 9.0
31.4025 12.0
31.8063 9.0
32.2101 10.0
32.6138 11.0
33.0176 8.0
33.4213 3.0
33.8251 7.0
34.2288 11.0
34.6326 15.0
35.0363 6.0
35.4401 7.0
35.8439 5.0
36.2476 8.0
36.6514 13.0
37.0551 5.0
37.4589 25.0
37.8626 15.0
38.2664 9.0
38.6702 7.0
39.0739 41.0
39.4777 435.0
39.8814 91.0
40.2852 20.0
40.6889 20.0
41.0927 23.0
41.4964 68.0
41.9002 46.0
42.304 22.0
42.7077 15.0
43.1115 11.0
43.5152 9.0
43.919 13.0
44.3227 12.0
44.7265 7.0
45.1303 12.0
45.534 14.0
45.9378 6.0
46.3415 7.0
46.7453 12.0
47.149 7.0
47.5528 17.0
47.9565 12.0
48.3603 8.0
48.7641 12.0
49.1678 11.0
49.5716 4.0
49.9753 9.0
50.3791 14.0
50.7828 7.0
51.1866 2.0
51.5903 11.0
51.9941 4.0
52.3979 16.0
52.8016 13.0
53.2054 5.0
53.6091 11.0
54.0129 5.0
54.4166 10.0
54.8204 5.0
55.2242 9.0
55.6279 4.0
56.0317 10.0
56.4354 13.0
56.8392 15.0
57.2429 6.0
57.6467 13.0
58.0504 8.0
58.4542 10.0
58.858 3.0
59.2617 10.0
59.6655 7.0
60.0692 11.0
60.473 10.0
60.8767 8.0
61.2805 11.0
61.6843 9.0
62.088 14.0
62.4918 8.0
62.8955 9.0
63.2993 10.0
63.703 11.0
64.1068 14.0
64.5105 9.0
64.9143 10.0
65.3181 9.0
65.7218 7.0
66.1256 10.0
66.5293 14.0
66.9331 7.0
67.3368 5.0
67.7406 15.0
68.1444 8.0
68.5481 11.0
68.9519 9.0
69.3556 12.0
69.7594 3.0
70.1631 8.0
70.5669 3.0
70.9706 6.0
71.3744 17.0
71.7782 13.0
72.1819 13.0
72.5857 15.0
72.9894 10.0
73.3932 11.0
73.7969 9.0
74.2007 6.0
74.6045 15.0
75.0082 13.0
75.412 10.0
75.8157 10.0
76.2195 8.0
76.6232 13.0
77.027 8.0
77.4307 12.0
77.8345 10.0
78.2383 4.0
78.642 12.0
79.0458 13.0
79.4495 13.0
79.8533 15.0
80.257 8.0
80.6608 4.0
81.0646 12.0
81.4683 21.0
81.8721 7.0
82.2758 8.0
82.6796 9.0
83.0833 13.0
83.4871 9.0
83.8908 15.0
84.2946 13.0
84.6984 33.0
85.1021 68.0
85.5059 134.0
85.9096 63.0
86.3134 14.0
86.7171 18.0
87.1209 17.0
87.5247 17.0
87.9284 12.0
88.3322 15.0
88.7359 12.0
89.1397 15.0
89.5434 21.0
89.9472 29.0
90.3509 57.0
90.7547 848.0
91.1585 113.0
91.5622 26.0
91.966 31.0
92.3697 23.0
92.7735 24.0
93.1772 15.0
93.581 14.0
93.9848 10.0
94.3885 10.0
94.7923 10.0
95.196 13.0
95.5998 13.0
96.0035 8.0
96.4073 9.0
96.811 13.0
97.2148 13.0
97.6186 18.0
98.0223 13.0
98.4261 10.0
98.8298 13.0
99.2336 18.0
99.6373 10.0
100.041 13.0
100.445 18.0
100.849 9.0
101.252 8.0
101.656 12.0
102.06 14.0
102.464 9.0
102.867 12.0
103.271 7.0
103.675 17.0
104.079 6.0
104.482 4.0
104.886 9.0
105.29 8.0
105.694 14.0
106.097 9.0
106.501 13.0
106.905 15.0
107.309 12.0
107.712 9.0
108.116 12.0
108.52 8.0
108.924 19.0
109.327 14.0
109.731 15.0
110.135 4.0
110.539 10.0
110.943 11.0
111.346 4.0
111.75 15.0
112.154 10.0
112.558 12.0
112.961 5.0
113.365 10.0
113.769 14.0
114.173 14.0
114.576 14.0
114.98 10.0
115.384 12.0
115.788 11.0
116.191 18.0
116.595 12.0
116.999 10.0
117.403 11.0
117.806 11.0
118.21 12.0
118.614 11.0
119.018 8.0
119.421 12.0
119.825 16.0
120.229 15.0
120.633 12.0
121.036 12.0
121.44 7.0
121.844 13.0
122.248 18.0
122.651 11.0
123.055 15.0
123.459 11.0
123.863 10.0
124.266 13.0
124.67 18.0
125.074 7.0
125.478 13.0
125.881 17.0
126.285 10.0
126.689 14.0
127.093 14.0
127.497 12.0
127.9 12.0
128.304 8.0
128.708 14.0
129.112 13.0
129.515 13.0
129.919 14.0
129.998 7.0