Folder: DataAnalysis/data/W6933c/XRD_2ThetaOmega

Note: data/W6933c/XRD_2ThetaOmega/W6933c_peaks.TXT
No.	Label	Pos. [°2Th.]	FWHM Left [°2Th.]	Area [cts*°2Th.]	Backgr.[cts]	d-spacing [Å]	Height [cts]	Shape Left	Status	Integral Breadth [°2Th.]	FWHM Right [°2Th.]	Shape Right	Obs. Lorentz B [°2Th.]	Obs. Gauss B [°2Th.]	Instr. Lorentz B [°2Th.]	Instr. Gauss B [°2Th.]	Crystallite Size [Å]	Micro Strain [%]	Crystallite Size only [Å]	Micro Strain only [%]
1	Cr2O3 0 0 6	39,235(1)	0,256(4)	84,78	0,84	2,29435	275(4)	0,35(2)	Included	0,307791	 	 	0,119380	0,225610	0,073933	0,062634	2061,953000	0,265333	380,142400	0,301775
2	Al2O3 0 0 6	41,6603(1)	0,0341(3)	241,46	1,79	2,16620	5397(48)	0,58(1)	Included	0,044745	 	 	0,027770	0,024761	0,073978	0,062672	-2043,860000	-0,066027	29862,040000	0,003627

Note: README.md
# Methods
## RSM analysis

Check out [doc](documentation/RSM.md)

File: c_scan_2th-om_10-130deg_PIXscan_17min.xy
10.0035 44.0
10.4072 50.0
10.811 58.0
11.2147 51.0
11.6185 57.0
12.0222 55.0
12.426 40.0
12.8298 50.0
13.2335 43.0
13.6373 49.0
14.041 40.0
14.4448 31.0
14.8485 47.0
15.2523 33.0
15.656 36.0
16.0598 38.0
16.4636 41.0
16.8673 31.0
17.2711 28.0
17.6748 30.0
18.0786 39.0
18.4823 31.0
18.8861 22.0
19.2899 33.0
19.6936 27.0
20.0974 34.0
20.5011 28.0
20.9049 16.0
21.3086 28.0
21.7124 20.0
22.1161 31.0
22.5199 15.0
22.9237 17.0
23.3274 13.0
23.7312 27.0
24.1349 25.0
24.5387 17.0
24.9424 23.0
25.3462 21.0
25.75 20.0
26.1537 14.0
26.5575 17.0
26.9612 20.0
27.365 22.0
27.7687 20.0
28.1725 19.0
28.5762 17.0
28.98 13.0
29.3838 23.0
29.7875 22.0
30.1913 29.0
30.595 14.0
30.9988 18.0
31.4025 21.0
31.8063 19.0
32.2101 14.0
32.6138 17.0
33.0176 29.0
33.4213 12.0
33.8251 13.0
34.2288 21.0
34.6326 17.0
35.0363 10.0
35.4401 13.0
35.8439 18.0
36.2476 21.0
36.6514 15.0
37.0551 22.0
37.4589 31.0
37.8626 23.0
38.2664 33.0
38.6702 45.0
39.0739 610.0
39.4777 116.0
39.8814 24.0
40.2852 17.0
40.6889 27.0
41.0927 36.0
41.4964 172.0
41.9002 46.0
42.304 27.0
42.7077 33.0
43.1115 20.0
43.5152 22.0
43.919 23.0
44.3227 45.0
44.7265 19.0
45.1303 21.0
45.534 15.0
45.9378 18.0
46.3415 18.0
46.7453 24.0
47.149 19.0
47.5528 25.0
47.9565 16.0
48.3603 14.0
48.7641 21.0
49.1678 29.0
49.5716 19.0
49.9753 25.0
50.3791 25.0
50.7828 23.0
51.1866 29.0
51.5903 21.0
51.9941 26.0
52.3979 26.0
52.8016 26.0
53.2054 22.0
53.6091 25.0
54.0129 17.0
54.4166 20.0
54.8204 18.0
55.2242 23.0
55.6279 15.0
56.0317 27.0
56.4354 19.0
56.8392 20.0
57.2429 14.0
57.6467 32.0
58.0504 21.0
58.4542 16.0
58.858 19.0
59.2617 24.0
59.6655 20.0
60.0692 22.0
60.473 21.0
60.8767 14.0
61.2805 21.0
61.6843 24.0
62.088 15.0
62.4918 15.0
62.8955 24.0
63.2993 35.0
63.703 23.0
64.1068 22.0
64.5105 28.0
64.9143 26.0
65.3181 27.0
65.7218 26.0
66.1256 38.0
66.5293 24.0
66.9331 21.0
67.3368 22.0
67.7406 24.0
68.1444 28.0
68.5481 22.0
68.9519 32.0
69.3556 20.0
69.7594 25.0
70.1631 25.0
70.5669 16.0
70.9706 28.0
71.3744 24.0
71.7782 19.0
72.1819 28.0
72.5857 17.0
72.9894 30.0
73.3932 35.0
73.7969 25.0
74.2007 26.0
74.6045 26.0
75.0082 22.0
75.412 20.0
75.8157 25.0
76.2195 22.0
76.6232 28.0
77.027 24.0
77.4307 27.0
77.8345 25.0
78.2383 33.0
78.642 23.0
79.0458 25.0
79.4495 26.0
79.8533 44.0
80.257 23.0
80.6608 27.0
81.0646 23.0
81.4683 26.0
81.8721 27.0
82.2758 29.0
82.6796 37.0
83.0833 28.0
83.4871 30.0
83.8908 62.0
84.2946 169.0
84.6984 144.0
85.1021 37.0
85.5059 46.0
85.9096 40.0
86.3134 31.0
86.7171 35.0
87.1209 27.0
87.5247 39.0
87.9284 20.0
88.3322 33.0
88.7359 43.0
89.1397 29.0
89.5434 33.0
89.9472 57.0
90.3509 138.0
90.7547 1154.0
91.1585 138.0
91.5622 54.0
91.966 46.0
92.3697 31.0
92.7735 32.0
93.1772 29.0
93.581 35.0
93.9848 28.0
94.3885 19.0
94.7923 29.0
95.196 28.0
95.5998 26.0
96.0035 21.0
96.4073 23.0
96.811 31.0
97.2148 31.0
97.6186 29.0
98.0223 31.0
98.4261 22.0
98.8298 19.0
99.2336 32.0
99.6373 20.0
100.041 17.0
100.445 38.0
100.849 30.0
101.252 32.0
101.656 25.0
102.06 19.0
102.464 27.0
102.867 32.0
103.271 17.0
103.675 27.0
104.079 27.0
104.482 28.0
104.886 31.0
105.29 30.0
105.694 20.0
106.097 39.0
106.501 33.0
106.905 29.0
107.309 26.0
107.712 29.0
108.116 34.0
108.52 28.0
108.924 38.0
109.327 22.0
109.731 25.0
110.135 30.0
110.539 36.0
110.943 27.0
111.346 18.0
111.75 28.0
112.154 25.0
112.558 37.0
112.961 25.0
113.365 29.0
113.769 22.0
114.173 31.0
114.576 27.0
114.98 32.0
115.384 28.0
115.788 35.0
116.191 19.0
116.595 34.0
116.999 20.0
117.403 23.0
117.806 25.0
118.21 29.0
118.614 31.0
119.018 29.0
119.421 26.0
119.825 31.0
120.229 26.0
120.633 26.0
121.036 31.0
121.44 22.0
121.844 32.0
122.248 24.0
122.651 34.0
123.055 22.0
123.459 35.0
123.863 26.0
124.266 30.0
124.67 25.0
125.074 21.0
125.478 38.0
125.881 36.0
126.285 33.0
126.689 33.0
127.093 30.0
127.497 36.0
127.9 33.0
128.304 19.0
128.708 30.0
129.112 16.0
129.515 25.0
129.919 31.0
129.998 30.0

File: w6933c_2theta
35.01000 3.0
35.05000 1.0
35.09000 1.0
35.13000 1.0
35.17000 1.0
35.21000 1.0
35.25000 1.0
35.29000 2.0
35.33000 0.0
35.37000 1.0
35.41000 1.0
35.45000 2.0
35.49000 2.0
35.53000 0.0
35.57000 2.0
35.61000 2.0
35.65000 1.0
35.69000 1.0
35.73000 2.0
35.77000 0.0
35.81000 1.0
35.85000 1.0
35.89000 4.0
35.93000 0.0
35.97000 1.0
36.01000 1.0
36.05000 0.0
36.09000 0.0
36.13000 1.0
36.17000 1.0
36.21000 2.0
36.25000 1.0
36.29000 1.0
36.33000 0.0
36.37000 1.0
36.41000 2.0
36.45000 1.0
36.49000 1.0
36.53000 1.0
36.57000 2.0
36.61000 0.0
36.65000 0.0
36.69000 0.0
36.73000 1.0
36.77000 1.0
36.81000 0.0
36.85000 0.0
36.89000 0.0
36.93000 1.0
36.97000 1.0
37.01000 2.0
37.05000 0.0
37.09000 4.0
37.13000 2.0
37.17000 2.0
37.21000 0.0
37.25000 1.0
37.29000 1.0
37.33000 0.0
37.37000 0.0
37.41000 2.0
37.45000 2.0
37.49000 1.0
37.53000 1.0
37.57000 0.0
37.61000 2.0
37.65000 2.0
37.69000 3.0
37.73000 1.0
37.77000 0.0
37.81000 2.0
37.85000 1.0
37.89000 1.0
37.93000 2.0
37.97000 2.0
38.01000 2.0
38.05000 4.0
38.09000 4.0
38.13000 4.0
38.17000 2.0
38.21000 5.0
38.25000 1.0
38.29000 3.0
38.33000 7.0
38.37000 8.0
38.41000 3.0
38.45000 5.0
38.49000 12.0
38.53000 10.0
38.57000 6.0
38.61000 6.0
38.65000 10.0
38.69000 9.0
38.73000 14.0
38.77000 19.0
38.81000 16.0
38.85000 18.0
38.89000 26.0
38.93000 24.0
38.97000 47.0
39.01000 50.0
39.05000 73.0
39.09000 129.0
39.13000 203.0
39.17000 245.0
39.21000 337.0
39.25000 409.0
39.29000 346.0
39.33000 345.0
39.37000 233.0
39.41000 211.0
39.45000 120.0
39.49000 74.0
39.53000 58.0
39.57000 32.0
39.61000 14.0
39.65000 17.0
39.69000 11.0
39.73000 16.0
39.77000 11.0
39.81000 7.0
39.85000 5.0
39.89000 5.0
39.93000 6.0
39.97000 5.0
40.01000 3.0
40.05000 1.0
40.09000 2.0
40.13000 5.0
40.17000 3.0
40.21000 2.0
40.25000 2.0
40.29000 3.0
40.33000 2.0
40.37000 1.0
40.41000 3.0
40.45000 1.0
40.49000 2.0
40.53000 1.0
40.57000 1.0
40.61000 0.0
40.65000 1.0
40.69000 3.0
40.73000 2.0
40.77000 2.0
40.81000 5.0
40.85000 3.0
40.89000 0.0
40.93000 4.0
40.97000 4.0
41.01000 4.0
41.05000 2.0
41.09000 5.0
41.13000 2.0
41.17000 4.0
41.21000 2.0
41.25000 3.0
41.29000 5.0
41.33000 5.0
41.37000 19.0
41.41000 10.0
41.45000 50.0
41.49000 66.0
41.53000 47.0
41.57000 82.0
41.61000 321.0
41.65000 4313.0
41.69000 1017.0
41.73000 365.0
41.77000 2603.0
41.81000 289.0
41.85000 82.0
41.89000 64.0
41.93000 51.0
41.97000 40.0
42.01000 26.0
42.05000 30.0
42.09000 15.0
42.13000 9.0
42.17000 10.0
42.21000 10.0
42.25000 10.0
42.29000 4.0
42.33000 4.0
42.37000 5.0
42.41000 5.0
42.45000 7.0
42.49000 3.0
42.53000 7.0
42.57000 3.0
42.61000 4.0
42.65000 3.0
42.69000 2.0
42.73000 3.0
42.77000 3.0
42.81000 7.0
42.85000 2.0
42.89000 2.0
42.93000 5.0
42.97000 2.0
43.01000 2.0
43.05000 0.0
43.09000 1.0
43.13000 5.0
43.17000 1.0
43.21000 2.0
43.25000 2.0
43.29000 0.0
43.33000 5.0
43.37000 1.0
43.41000 4.0
43.45000 2.0
43.49000 3.0
43.53000 3.0
43.57000 5.0
43.61000 2.0
43.65000 1.0
43.69000 3.0
43.73000 5.0
43.77000 1.0
43.81000 2.0
43.85000 1.0
43.89000 3.0
43.93000 2.0
43.97000 0.0
44.01000 4.0
44.05000 2.0
44.09000 2.0
44.13000 0.0
44.17000 3.0
44.21000 4.0
44.25000 2.0
44.29000 1.0
44.33000 2.0
44.37000 3.0
44.41000 3.0
44.45000 3.0
44.49000 1.0
44.53000 3.0
44.57000 1.0
44.61000 2.0
44.65000 1.0
44.69000 5.0
44.73000 3.0
44.77000 0.0
44.81000 1.0
44.85000 3.0
44.89000 1.0
44.93000 1.0
44.97000 2.0
44.99000 0.0