Folder: DataAnalysis/data/W6933c/XRD_Omega

Note: data/W6933c/XRD_Omega/W6933c_omega_peaks.TXT
No.	Label	Pos. [記mega]	FWHM Left [記mega]	Area [cts*記mega]	Backgr.[cts]	d-spacing [魔	Height [cts]	Shape Left	Status	Integral Breadth [記mega]	FWHM Right [記mega]	Shape Right	Obs. Lorentz B [記mega]	Obs. Gauss B [記mega]	Instr. Lorentz B [記mega]	Instr. Gauss B [記mega]	Crystallite Size [魔	Micro Strain [%]	Crystallite Size only [魔	Micro Strain only [%]
1	Cr2O3 0 0 6	19,6078(1)	0,1356(3)	1307,06	55,45	 	7996(20)	0,363(3)	Included	0,163469	 	 	0,065451	0,118323	0,075219	0,063719	-9170,876000	0,251750	898,372900	0,251778

Note: README.md
# Methods
## RSM analysis

Check out [doc](documentation/RSM.md)

File: film_c_scan_omega_4deg_step_0.005deg0.xy
17.64240 52.0
17.65740 65.0
17.67240 52.0
17.68740 58.0
17.70240 62.0
17.71740 65.0
17.73240 76.0
17.74740 58.0
17.76240 47.0
17.77740 69.0
17.79240 57.0
17.80740 57.0
17.82240 56.0
17.83740 51.0
17.85240 46.0
17.86740 54.0
17.88240 62.0
17.89740 55.0
17.91240 59.0
17.92740 58.0
17.94240 59.0
17.95740 55.0
17.97240 62.0
17.98740 48.0
18.00240 66.0
18.01740 66.0
18.03240 64.0
18.04740 55.0
18.06240 51.0
18.07740 49.0
18.09240 54.0
18.10740 52.0
18.12240 49.0
18.13740 58.0
18.15240 62.0
18.16740 50.0
18.18240 57.0
18.19740 51.0
18.21240 54.0
18.22740 53.0
18.24240 59.0
18.25740 51.0
18.27240 59.0
18.28740 65.0
18.30240 57.0
18.31740 62.0
18.33240 58.0
18.34740 48.0
18.36240 42.0
18.37740 53.0
18.39240 47.0
18.40740 44.0
18.42240 51.0
18.43740 58.0
18.45240 56.0
18.46740 64.0
18.48240 52.0
18.49740 70.0
18.51240 52.0
18.52740 52.0
18.54240 72.0
18.55740 62.0
18.57240 52.0
18.58740 70.0
18.60240 77.0
18.61740 55.0
18.63240 63.0
18.64740 68.0
18.66240 89.0
18.67740 41.0
18.69240 57.0
18.70740 64.0
18.72240 61.0
18.73740 70.0
18.75240 70.0
18.76740 63.0
18.78240 50.0
18.79740 69.0
18.81240 61.0
18.82740 67.0
18.84240 63.0
18.85740 90.0
18.87240 68.0
18.88740 63.0
18.90240 81.0
18.91740 80.0
18.93240 88.0
18.94740 87.0
18.96240 81.0
18.97740 102.0
18.99240 80.0
19.00740 86.0
19.02240 99.0
19.03740 94.0
19.05240 104.0
19.06740 98.0
19.08240 110.0
19.09740 93.0
19.11240 121.0
19.12740 117.0
19.14240 122.0
19.15740 104.0
19.17240 130.0
19.18740 137.0
19.20240 142.0
19.21740 133.0
19.23240 132.0
19.24740 176.0
19.26240 150.0
19.27740 165.0
19.29240 211.0
19.30740 189.0
19.32240 248.0
19.33740 266.0
19.35240 288.0
19.36740 305.0
19.38240 336.0
19.39740 426.0
19.41240 450.0
19.42740 529.0
19.44240 588.0
19.45740 768.0
19.47240 936.0
19.48740 1396.0
19.50240 2227.0
19.51740 3126.0
19.53240 4005.0
19.54740 5242.0
19.56240 6968.0
19.57740 8383.0
19.59240 9454.0
19.60740 10774.0
19.62240 11392.0
19.63740 10541.0
19.65240 9830.0
19.66740 8620.0
19.68240 6995.0
19.69740 5715.0
19.71240 4258.0
19.72740 3200.0
19.74240 2279.0
19.75740 1604.0
19.77240 1187.0
19.78740 847.0
19.80240 587.0
19.81740 548.0
19.83240 513.0
19.84740 376.0
19.86240 371.0
19.87740 365.0
19.89240 286.0
19.90740 246.0
19.92240 266.0
19.93740 213.0
19.95240 179.0
19.96740 182.0
19.98240 195.0
19.99740 152.0
20.01240 165.0
20.02740 151.0
20.04240 151.0
20.05740 141.0
20.07240 133.0
20.08740 140.0
20.10240 109.0
20.11740 108.0
20.13240 118.0
20.14740 77.0
20.16240 93.0
20.17740 100.0
20.19240 109.0
20.20740 84.0
20.22240 77.0
20.23740 87.0
20.25240 74.0
20.26740 89.0
20.28240 86.0
20.29740 78.0
20.31240 57.0
20.32740 79.0
20.34240 66.0
20.35740 65.0
20.37240 57.0
20.38740 69.0
20.40240 68.0
20.41740 58.0
20.43240 70.0
20.44740 70.0
20.46240 72.0
20.47740 65.0
20.49240 61.0
20.50740 80.0
20.52240 87.0
20.53740 68.0
20.55240 72.0
20.56740 67.0
20.58240 60.0
20.59740 61.0
20.61240 56.0
20.62740 53.0
20.64240 54.0
20.65740 73.0
20.67240 51.0
20.68740 51.0
20.70240 51.0
20.71740 62.0
20.73240 57.0
20.74740 59.0
20.76240 72.0
20.77740 58.0
20.79240 63.0
20.80740 59.0
20.82240 51.0
20.83740 70.0
20.85240 56.0
20.86740 50.0
20.88240 55.0
20.89740 68.0
20.91240 50.0
20.92740 51.0
20.94240 61.0
20.95740 64.0
20.97240 50.0
20.98740 66.0
21.00240 44.0
21.01740 58.0
21.03240 49.0
21.04740 56.0
21.06240 64.0
21.07740 55.0
21.09240 60.0
21.10740 51.0
21.12240 57.0
21.13740 55.0
21.15240 54.0
21.16740 43.0
21.18240 50.0
21.19740 44.0
21.21240 59.0
21.22740 67.0
21.24240 49.0
21.25740 45.0
21.27240 61.0
21.28740 62.0
21.30240 63.0
21.31740 46.0
21.33240 56.0
21.34740 66.0
21.36240 51.0
21.37740 56.0
21.39240 49.0
21.40740 38.0
21.42240 46.0
21.43740 45.0
21.45240 49.0
21.46740 57.0
21.48240 58.0
21.49740 61.0
21.51240 63.0
21.52740 48.0
21.54240 53.0
21.55740 61.0
21.57240 49.0
21.58740 57.0
21.60240 57.0