Folder: DataAnalysis/data/W6902a/XRD_Omega

Note: data/W6902a/XRD_Omega/W6902a_omega_peaks.TXT
No.	Label	Pos. [記mega]	FWHM Left [記mega]	Area [cts*記mega]	Backgr.[cts]	d-spacing [魔	Height [cts]	Shape Left	Status	Integral Breadth [記mega]	FWHM Right [記mega]	Shape Right	Obs. Lorentz B [記mega]	Obs. Gauss B [記mega]	Instr. Lorentz B [記mega]	Instr. Gauss B [記mega]	Crystallite Size [魔	Micro Strain [%]	Crystallite Size only [魔	Micro Strain only [%]
1	Cr2O3 1 1 0	17,8983(8)	0,871(4)	2637,46	263,11	 	1927(5)	1,000(5)	Included	1,368351	 	 	1,361931	0,023109	0,075454	0,063918	69,459100	-0,165124	69,458680	3,564607

Note: README.md
# Methods
## RSM analysis

Check out [doc](documentation/RSM.md)

File: scan_omega_4deg_step_0.005deg0_C3_1.xy
15.92640 290.0
15.94140 288.0
15.95640 281.0
15.97140 299.0
15.98640 357.0
16.00140 302.0
16.01640 343.0
16.03140 335.0
16.04640 338.0
16.06140 382.0
16.07640 311.0
16.09140 314.0
16.10640 330.0
16.12140 374.0
16.13640 339.0
16.15140 390.0
16.16640 390.0
16.18140 380.0
16.19640 387.0
16.21140 393.0
16.22640 386.0
16.24140 397.0
16.25640 402.0
16.27140 409.0
16.28640 409.0
16.30140 458.0
16.31640 401.0
16.33140 429.0
16.34640 434.0
16.36140 426.0
16.37640 463.0
16.39140 533.0
16.40640 463.0
16.42140 480.0
16.43640 502.0
16.45140 495.0
16.46640 542.0
16.48140 511.0
16.49640 527.0
16.51140 550.0
16.52640 558.0
16.54140 528.0
16.55640 545.0
16.57140 562.0
16.58640 581.0
16.60140 628.0
16.61640 605.0
16.63140 575.0
16.64640 619.0
16.66140 622.0
16.67640 661.0
16.69140 622.0
16.70640 632.0
16.72140 689.0
16.73640 602.0
16.75140 648.0
16.76640 735.0
16.78140 677.0
16.79640 730.0
16.81140 763.0
16.82640 727.0
16.84140 744.0
16.85640 734.0
16.87140 868.0
16.88640 834.0
16.90140 866.0
16.91640 882.0
16.93140 836.0
16.94640 879.0
16.96140 896.0
16.97640 932.0
16.99140 937.0
17.00640 989.0
17.02140 974.0
17.03640 945.0
17.05140 976.0
17.06640 981.0
17.08140 1127.0
17.09640 1054.0
17.11140 1075.0
17.12640 1135.0
17.14140 1075.0
17.15640 1123.0
17.17140 1139.0
17.18640 1159.0
17.20140 1193.0
17.21640 1172.0
17.23140 1229.0
17.24640 1268.0
17.26140 1261.0
17.27640 1354.0
17.29140 1402.0
17.30640 1364.0
17.32140 1486.0
17.33640 1399.0
17.35140 1444.0
17.36640 1477.0
17.38140 1511.0
17.39640 1523.0
17.41140 1658.0
17.42640 1549.0
17.44140 1676.0
17.45640 1670.0
17.47140 1751.0
17.48640 1638.0
17.50140 1782.0
17.51640 1823.0
17.53140 1845.0
17.54640 1861.0
17.56140 1913.0
17.57640 1962.0
17.59140 1905.0
17.60640 1907.0
17.62140 2015.0
17.63640 2028.0
17.65140 2104.0
17.66640 2143.0
17.68140 2191.0
17.69640 2278.0
17.71140 2266.0
17.72640 2283.0
17.74140 2352.0
17.75640 2349.0
17.77140 2622.0
17.78640 2779.0
17.80140 2837.0
17.81640 2806.0
17.83140 2954.0
17.84640 3113.0
17.86140 3798.0
17.87640 4310.0
17.89140 4919.0
17.90640 4911.0
17.92140 4582.0
17.93640 4093.0
17.95140 3850.0
17.96640 3638.0
17.98140 3258.0
17.99640 3007.0
18.01140 2815.0
18.02640 2871.0
18.04140 2618.0
18.05640 2488.0
18.07140 2454.0
18.08640 2399.0
18.10140 2452.0
18.11640 2329.0
18.13140 2239.0
18.14640 2222.0
18.16140 2076.0
18.17640 2134.0
18.19140 2087.0
18.20640 2027.0
18.22140 1991.0
18.23640 1976.0
18.25140 1911.0
18.26640 1845.0
18.28140 1822.0
18.29640 1825.0
18.31140 1775.0
18.32640 1766.0
18.34140 1635.0
18.35640 1693.0
18.37140 1733.0
18.38640 1632.0
18.40140 1573.0
18.41640 1528.0
18.43140 1569.0
18.44640 1576.0
18.46140 1487.0
18.47640 1416.0
18.49140 1393.0
18.50640 1310.0
18.52140 1425.0
18.53640 1369.0
18.55140 1322.0
18.56640 1229.0
18.58140 1240.0
18.59640 1217.0
18.61140 1198.0
18.62640 1200.0
18.64140 1089.0
18.65640 1168.0
18.67140 1115.0
18.68640 1009.0
18.70140 1045.0
18.71640 1085.0
18.73140 1049.0
18.74640 989.0
18.76140 972.0
18.77640 968.0
18.79140 936.0
18.80640 927.0
18.82140 929.0
18.83640 934.0
18.85140 883.0
18.86640 924.0
18.88140 887.0
18.89640 872.0
18.91140 875.0
18.92640 780.0
18.94140 796.0
18.95640 760.0
18.97140 739.0
18.98640 734.0
19.00140 721.0
19.01640 696.0
19.03140 671.0
19.04640 629.0
19.06140 639.0
19.07640 688.0
19.09140 692.0
19.10640 648.0
19.12140 583.0
19.13640 589.0
19.15140 622.0
19.16640 572.0
19.18140 592.0
19.19640 599.0
19.21140 578.0
19.22640 567.0
19.24140 529.0
19.25640 517.0
19.27140 498.0
19.28640 499.0
19.30140 498.0
19.31640 497.0
19.33140 496.0
19.34640 442.0
19.36140 526.0
19.37640 454.0
19.39140 455.0
19.40640 474.0
19.42140 410.0
19.43640 448.0
19.45140 432.0
19.46640 429.0
19.48140 400.0
19.49640 394.0
19.51140 394.0
19.52640 356.0
19.54140 360.0
19.55640 387.0
19.57140 367.0
19.58640 388.0
19.60140 390.0
19.61640 322.0
19.63140 349.0
19.64640 340.0
19.66140 354.0
19.67640 350.0
19.69140 333.0
19.70640 324.0
19.72140 303.0
19.73640 306.0
19.75140 306.0
19.76640 311.0
19.78140 296.0
19.79640 298.0
19.81140 279.0
19.82640 306.0
19.84140 294.0
19.85640 263.0
19.87140 264.0
19.88640 236.0