Folder: DataAnalysis/data/W6902a/XRD_2ThetaOmega

Note: data/W6902a/XRD_2ThetaOmega/W6902a_peaks.TXT
No.	Label	Pos. [°2Th.]	FWHM Left [°2Th.]	Area [cts*°2Th.]	Backgr.[cts]	d-spacing [Å]	Height [cts]	Shape Left	Status	Integral Breadth [°2Th.]	FWHM Right [°2Th.]	Shape Right	Obs. Lorentz B [°2Th.]	Obs. Gauss B [°2Th.]	Instr. Lorentz B [°2Th.]	Instr. Gauss B [°2Th.]	Crystallite Size [Å]	Micro Strain [%]	Crystallite Size only [Å]	Micro Strain only [%]
1	Cr2O3 1 1 0	35,9473(1)	0,1614(4)	2445,57	235,23	2,49628	12155(28)	0,453(4)	Included	0,201204	 	 	0,099078	0,131795	0,073951	0,062648	3693,101000	0,155957	700,728700	0,178120
2	Al2O3 1 1 0	37,67443(1)	0,04656(3)	19168,98	261,13	2,38571	342089(208)	0,3583(8)	Included	0,056035	 	 	0,022166	0,040757	0,073931	0,062631	-1801,720000	-0,060823	29489,700000	0,004045

Note: README.md
# Methods
## RSM analysis

Check out [doc](documentation/RSM.md)

File: scan_2th-om_a_Cr2O3_30-40deg_PIXscan_4min_4.xy
30.0025 101.0
30.0369 120.0
30.0714 113.0
30.1059 106.0
30.1403 113.0
30.1748 124.0
30.2093 98.0
30.2437 103.0
30.2782 116.0
30.3127 100.0
30.3471 116.0
30.3816 101.0
30.4161 115.0
30.4505 118.0
30.485 104.0
30.5195 110.0
30.5539 88.0
30.5884 109.0
30.6229 135.0
30.6573 106.0
30.6918 100.0
30.7263 107.0
30.7607 103.0
30.7952 111.0
30.8297 118.0
30.8641 121.0
30.8986 99.0
30.9331 113.0
30.9675 115.0
31.002 97.0
31.0365 101.0
31.0709 106.0
31.1054 114.0
31.1399 116.0
31.1743 127.0
31.2088 108.0
31.2433 107.0
31.2777 136.0
31.3122 108.0
31.3467 89.0
31.3811 106.0
31.4156 112.0
31.4501 109.0
31.4845 90.0
31.519 140.0
31.5535 100.0
31.5879 107.0
31.6224 127.0
31.6569 105.0
31.6913 97.0
31.7258 100.0
31.7603 106.0
31.7947 114.0
31.8292 116.0
31.8637 101.0
31.8981 124.0
31.9326 135.0
31.9671 103.0
32.0015 101.0
32.036 131.0
32.0705 107.0
32.1049 125.0
32.1394 115.0
32.1739 101.0
32.2083 126.0
32.2428 127.0
32.2773 140.0
32.3118 162.0
32.3462 175.0
32.3807 160.0
32.4152 153.0
32.4496 118.0
32.4841 125.0
32.5186 115.0
32.553 118.0
32.5875 132.0
32.622 126.0
32.6564 100.0
32.6909 119.0
32.7254 106.0
32.7598 108.0
32.7943 115.0
32.8288 114.0
32.8632 105.0
32.8977 110.0
32.9322 116.0
32.9666 108.0
33.0011 116.0
33.0356 113.0
33.07 115.0
33.1045 116.0
33.139 101.0
33.1734 105.0
33.2079 109.0
33.2424 98.0
33.2768 120.0
33.3113 115.0
33.3458 114.0
33.3802 112.0
33.4147 125.0
33.4492 103.0
33.4836 114.0
33.5181 124.0
33.5526 101.0
33.587 122.0
33.6215 131.0
33.656 105.0
33.6904 116.0
33.7249 120.0
33.7594 117.0
33.7938 112.0
33.8283 155.0
33.8628 217.0
33.8972 1096.0
33.9317 1216.0
33.9662 340.0
34.0006 172.0
34.0351 121.0
34.0696 155.0
34.104 154.0
34.1385 140.0
34.173 140.0
34.2074 116.0
34.2419 149.0
34.2764 127.0
34.3108 126.0
34.3453 150.0
34.3798 138.0
34.4142 122.0
34.4487 142.0
34.4832 144.0
34.5176 138.0
34.5521 138.0
34.5866 135.0
34.621 129.0
34.6555 129.0
34.69 115.0
34.7244 129.0
34.7589 166.0
34.7934 147.0
34.8278 138.0
34.8623 150.0
34.8968 163.0
34.9312 153.0
34.9657 162.0
35.0002 174.0
35.0346 154.0
35.0691 154.0
35.1036 189.0
35.138 188.0
35.1725 173.0
35.207 217.0
35.2414 200.0
35.2759 213.0
35.3104 206.0
35.3448 241.0
35.3793 226.0
35.4138 242.0
35.4482 297.0
35.4827 288.0
35.5172 320.0
35.5516 404.0
35.5861 418.0
35.6206 468.0
35.655 593.0
35.6895 709.0
35.724 902.0
35.7584 1342.0
35.7929 1979.0
35.8274 3416.0
35.8619 6451.0
35.8963 10582.0
35.9308 14581.0
35.9653 15425.0
35.9997 13862.0
36.0342 11077.0
36.0687 8394.0
36.1031 5685.0
36.1376 3305.0
36.1721 2313.0
36.2065 1665.0
36.241 1265.0
36.2755 966.0
36.3099 816.0
36.3444 694.0
36.3789 603.0
36.4133 513.0
36.4478 466.0
36.4823 431.0
36.5167 407.0
36.5512 378.0
36.5857 398.0
36.6201 387.0
36.6546 355.0
36.6891 357.0
36.7235 381.0
36.758 406.0
36.7925 394.0
36.8269 440.0
36.8614 392.0
36.8959 447.0
36.9303 487.0
36.9648 443.0
36.9993 503.0
37.0337 489.0
37.0682 495.0
37.1027 557.0
37.1371 599.0
37.1716 576.0
37.2061 644.0
37.2405 679.0
37.275 719.0
37.3095 873.0
37.3439 1031.0
37.3784 1087.0
37.4129 1314.0
37.4473 1731.0
37.4818 3167.0
37.5163 4282.0
37.5507 4259.0
37.5852 6484.0
37.6197 18938.0
37.6541 236871.0
37.6886 285863.0
37.7231 37118.0
37.7575 144607.0
37.792 119894.0
37.8265 12249.0
37.8609 4842.0
37.8954 3158.0
37.9299 2334.0
37.9643 1776.0
37.9988 1519.0
38.0333 1242.0
38.0677 1132.0
38.1022 973.0
38.1367 910.0
38.1711 886.0
38.2056 705.0
38.2401 651.0
38.2745 533.0
38.309 553.0
38.3435 496.0
38.3779 491.0
38.4124 424.0
38.4469 409.0
38.4813 390.0
38.5158 328.0
38.5503 320.0
38.5847 278.0
38.6192 285.0
38.6537 222.0
38.6881 203.0
38.7226 206.0
38.7571 193.0
38.7915 182.0
38.826 183.0
38.8605 175.0
38.8949 163.0
38.9294 147.0
38.9639 168.0
38.9983 146.0
39.0328 179.0
39.0673 166.0
39.1017 157.0
39.1362 163.0
39.1707 132.0
39.2051 134.0
39.2396 123.0
39.2741 137.0
39.3085 148.0
39.343 142.0
39.3775 133.0
39.412 128.0
39.4464 142.0
39.4809 131.0
39.5154 130.0
39.5498 130.0
39.5843 111.0
39.6188 114.0
39.6532 118.0
39.6877 143.0
39.7222 110.0
39.7566 132.0
39.7911 116.0
39.8256 125.0
39.86 106.0
39.8945 126.0
39.929 118.0
39.9634 107.0
39.9979 129.0