Folder: DataAnalysis/data/W6910a/XRD_2ThetaOmega

Note: data/W6910a/XRD_2ThetaOmega/W6910a_peaks.TXT
No.	Label	Pos. [°2Th.]	FWHM Left [°2Th.]	Area [cts*°2Th.]	Backgr.[cts]	d-spacing [Å]	Height [cts]	Shape Left	Status	Integral Breadth [°2Th.]	FWHM Right [°2Th.]	Shape Right	Obs. Lorentz B [°2Th.]	Obs. Gauss B [°2Th.]	Instr. Lorentz B [°2Th.]	Instr. Gauss B [°2Th.]	Crystallite Size [Å]	Micro Strain [%]	Crystallite Size only [Å]	Micro Strain only [%]
1	Cr2O3 1 1 0	35,64766(7)	0,1522(3)	7501,46	176,63	2,51657	37166(54)	0,612(2)	Included	0,201835	 	 	0,130850	0,107004	0,073956	0,062653	1629,703000	0,117718	732,998700	0,171662
2	Al2O3 1 1 0	37,72248(1)	0,05054(2)	21456,71	369,41	2,38278	358275(201)	0,3156(7)	Included	0,059889	 	 	0,021016	0,045505	0,073930	0,062631	-1762,822000	-0,054965	29493,920000	0,004039

Note: README.md
# Methods
## RSM analysis

Check out [doc](documentation/RSM.md)

File: w6910a_scan_2th-om_a_Cr2O3_30-40deg_PIXscan_4min.xy
30.0025 108.0
30.0369 115.0
30.0714 135.0
30.1059 115.0
30.1403 110.0
30.1748 113.0
30.2093 131.0
30.2437 98.0
30.2782 127.0
30.3127 105.0
30.3471 121.0
30.3816 112.0
30.4161 104.0
30.4505 114.0
30.485 108.0
30.5195 110.0
30.5539 109.0
30.5884 106.0
30.6229 130.0
30.6573 104.0
30.6918 113.0
30.7263 105.0
30.7607 105.0
30.7952 111.0
30.8297 108.0
30.8641 112.0
30.8986 100.0
30.9331 111.0
30.9675 107.0
31.002 118.0
31.0365 101.0
31.0709 123.0
31.1054 89.0
31.1399 107.0
31.1743 104.0
31.2088 113.0
31.2433 100.0
31.2777 114.0
31.3122 100.0
31.3467 120.0
31.3811 98.0
31.4156 110.0
31.4501 120.0
31.4845 126.0
31.519 108.0
31.5535 124.0
31.5879 106.0
31.6224 130.0
31.6569 115.0
31.6913 114.0
31.7258 123.0
31.7603 107.0
31.7947 112.0
31.8292 106.0
31.8637 107.0
31.8981 118.0
31.9326 118.0
31.9671 123.0
32.0015 165.0
32.036 161.0
32.0705 258.0
32.1049 277.0
32.1394 247.0
32.1739 203.0
32.2083 155.0
32.2428 133.0
32.2773 157.0
32.3118 128.0
32.3462 130.0
32.3807 119.0
32.4152 102.0
32.4496 104.0
32.4841 109.0
32.5186 129.0
32.553 108.0
32.5875 105.0
32.622 120.0
32.6564 107.0
32.6909 101.0
32.7254 147.0
32.7598 121.0
32.7943 121.0
32.8288 121.0
32.8632 109.0
32.8977 109.0
32.9322 114.0
32.9666 130.0
33.0011 99.0
33.0356 105.0
33.07 119.0
33.1045 124.0
33.139 115.0
33.1734 131.0
33.2079 125.0
33.2424 124.0
33.2768 114.0
33.3113 105.0
33.3458 128.0
33.3802 117.0
33.4147 129.0
33.4492 115.0
33.4836 135.0
33.5181 116.0
33.5526 145.0
33.587 134.0
33.6215 153.0
33.656 116.0
33.6904 147.0
33.7249 121.0
33.7594 127.0
33.7938 133.0
33.8283 144.0
33.8628 169.0
33.8972 214.0
33.9317 641.0
33.9662 1339.0
34.0006 651.0
34.0351 239.0
34.0696 220.0
34.104 180.0
34.1385 164.0
34.173 186.0
34.2074 174.0
34.2419 157.0
34.2764 169.0
34.3108 166.0
34.3453 170.0
34.3798 178.0
34.4142 193.0
34.4487 165.0
34.4832 180.0
34.5176 192.0
34.5521 181.0
34.5866 202.0
34.621 226.0
34.6555 228.0
34.69 229.0
34.7244 272.0
34.7589 228.0
34.7934 273.0
34.8278 290.0
34.8623 318.0
34.8968 322.0
34.9312 375.0
34.9657 372.0
35.0002 379.0
35.0346 423.0
35.0691 459.0
35.1036 502.0
35.138 571.0
35.1725 631.0
35.207 706.0
35.2414 753.0
35.2759 913.0
35.3104 1098.0
35.3448 1333.0
35.3793 1766.0
35.4138 2302.0
35.4482 3386.0
35.4827 5176.0
35.5172 8380.0
35.5516 14974.0
35.5861 25923.0
35.6206 39865.0
35.655 46201.0
35.6895 41942.0
35.724 35751.0
35.7584 27138.0
35.7929 17997.0
35.8274 11063.0
35.8619 7031.0
35.8963 4724.0
35.9308 3547.0
35.9653 2876.0
35.9997 2383.0
36.0342 1986.0
36.0687 1642.0
36.1031 1434.0
36.1376 1282.0
36.1721 1127.0
36.2065 956.0
36.241 867.0
36.2755 832.0
36.3099 707.0
36.3444 647.0
36.3789 623.0
36.4133 562.0
36.4478 532.0
36.4823 528.0
36.5167 466.0
36.5512 456.0
36.5857 424.0
36.6201 416.0
36.6546 419.0
36.6891 425.0
36.7235 391.0
36.758 396.0
36.7925 447.0
36.8269 459.0
36.8614 450.0
36.8959 467.0
36.9303 514.0
36.9648 512.0
36.9993 526.0
37.0337 516.0
37.0682 553.0
37.1027 608.0
37.1371 603.0
37.1716 629.0
37.2061 665.0
37.2405 688.0
37.275 764.0
37.3095 892.0
37.3439 958.0
37.3784 1051.0
37.4129 1153.0
37.4473 1289.0
37.4818 1650.0
37.5163 2756.0
37.5507 4444.0
37.5852 4900.0
37.6197 5842.0
37.6541 13139.0
37.6886 117601.0
37.7231 321970.0
37.7575 101237.0
37.792 104973.0
37.8265 162225.0
37.8609 33001.0
37.8954 7167.0
37.9299 4019.0
37.9643 2644.0
37.9988 1995.0
38.0333 1630.0
38.0677 1328.0
38.1022 1135.0
38.1367 1053.0
38.1711 900.0
38.2056 792.0
38.2401 702.0
38.2745 566.0
38.309 590.0
38.3435 461.0
38.3779 438.0
38.4124 403.0
38.4469 417.0
38.4813 336.0
38.5158 312.0
38.5503 291.0
38.5847 262.0
38.6192 228.0
38.6537 257.0
38.6881 211.0
38.7226 204.0
38.7571 213.0
38.7915 196.0
38.826 202.0
38.8605 171.0
38.8949 161.0
38.9294 175.0
38.9639 163.0
38.9983 176.0
39.0328 169.0
39.0673 162.0
39.1017 175.0
39.1362 176.0
39.1707 158.0
39.2051 154.0
39.2396 158.0
39.2741 140.0
39.3085 143.0
39.343 143.0
39.3775 134.0
39.412 152.0
39.4464 159.0
39.4809 132.0
39.5154 154.0
39.5498 141.0
39.5843 126.0
39.6188 153.0
39.6532 123.0
39.6877 151.0
39.7222 137.0
39.7566 124.0
39.7911 147.0
39.8256 157.0
39.86 136.0
39.8945 128.0
39.929 136.0
39.9634 134.0
39.9979 135.0