Folder: DataAnalysis/data/W6910a/XRD_Omega

Note: data/W6910a/XRD_Omega/W6910a_omega_peaks.TXT
No.	Pos. [記mega]	FWHM Left [記mega]	Area [cts*記mega]	Backgr.[cts]	d-spacing [魔	Height [cts]	Shape Left	Status	Integral Breadth [記mega]	FWHM Right [記mega]	Shape Right	Obs. Lorentz B [記mega]	Obs. Gauss B [記mega]	Instr. Lorentz B [記mega]	Instr. Gauss B [記mega]	Crystallite Size [魔	Micro Strain [%]	Crystallite Size only [魔	Micro Strain only [%]
1	18,2075(4)	1,094(1)	9029,16	369,64	 	6803(7)	0,380(2)	Included	1,327220	 	 	0,554950	0,943341	0,075410	0,063881	186,420000	2,562798	70,401320	3,457642

Note: README.md
# Methods
## RSM analysis

Check out [doc](documentation/RSM.md)

File: w6910a_a-Cr2O3_scan_omega_4deg_step_0.005deg0_1.xy
16.25690 459.0
16.27190 468.0
16.28690 481.0
16.30190 427.0
16.31690 482.0
16.33190 457.0
16.34690 484.0
16.36190 502.0
16.37690 500.0
16.39190 539.0
16.40690 518.0
16.42190 539.0
16.43690 508.0
16.45190 540.0
16.46690 572.0
16.48190 571.0
16.49690 601.0
16.51190 655.0
16.52690 604.0
16.54190 622.0
16.55690 599.0
16.57190 646.0
16.58690 645.0
16.60190 698.0
16.61690 703.0
16.63190 708.0
16.64690 704.0
16.66190 721.0
16.67690 825.0
16.69190 790.0
16.70690 795.0
16.72190 840.0
16.73690 838.0
16.75190 857.0
16.76690 952.0
16.78190 975.0
16.79690 960.0
16.81190 1001.0
16.82690 988.0
16.84190 957.0
16.85690 970.0
16.87190 1066.0
16.88690 1066.0
16.90190 1117.0
16.91690 1120.0
16.93190 1183.0
16.94690 1206.0
16.96190 1305.0
16.97690 1246.0
16.99190 1319.0
17.00690 1410.0
17.02190 1386.0
17.03690 1369.0
17.05190 1452.0
17.06690 1548.0
17.08190 1520.0
17.09690 1514.0
17.11190 1631.0
17.12690 1733.0
17.14190 1694.0
17.15690 1759.0
17.17190 1837.0
17.18690 1811.0
17.20190 1946.0
17.21690 2021.0
17.23190 1923.0
17.24690 2148.0
17.26190 2288.0
17.27690 2169.0
17.29190 2245.0
17.30690 2430.0
17.32190 2418.0
17.33690 2509.0
17.35190 2609.0
17.36690 2730.0
17.38190 2725.0
17.39690 2870.0
17.41190 2953.0
17.42690 2960.0
17.44190 3242.0
17.45690 3368.0
17.47190 3466.0
17.48690 3409.0
17.50190 3642.0
17.51690 3617.0
17.53190 3815.0
17.54690 3979.0
17.56190 4061.0
17.57690 4134.0
17.59190 4146.0
17.60690 4454.0
17.62190 4654.0
17.63690 4599.0
17.65190 4823.0
17.66690 5116.0
17.68190 5229.0
17.69690 5446.0
17.71190 5389.0
17.72690 5783.0
17.74190 5787.0
17.75690 6002.0
17.77190 6237.0
17.78690 6360.0
17.80190 6577.0
17.81690 6745.0
17.83190 6815.0
17.84690 7183.0
17.86190 7390.0
17.87690 7538.0
17.89190 7712.0
17.90690 7887.0
17.92190 8034.0
17.93690 8244.0
17.95190 8175.0
17.96690 8499.0
17.98190 8851.0
17.99690 8862.0
18.01190 9218.0
18.02690 9407.0
18.04190 9509.0
18.05690 9566.0
18.07190 9727.0
18.08690 10056.0
18.10190 10116.0
18.11690 10291.0
18.13190 10890.0
18.14690 11208.0
18.16190 11520.0
18.17690 11472.0
18.19190 12232.0
18.20690 12930.0
18.22190 13245.0
18.23690 13329.0
18.25190 12875.0
18.26690 12214.0
18.28190 12077.0
18.29690 11479.0
18.31190 11077.0
18.32690 10636.0
18.34190 10654.0
18.35690 10339.0
18.37190 10167.0
18.38690 9976.0
18.40190 9740.0
18.41690 9566.0
18.43190 9433.0
18.44690 9321.0
18.46190 8854.0
18.47690 8700.0
18.49190 8672.0
18.50690 8428.0
18.52190 8310.0
18.53690 7948.0
18.55190 7721.0
18.56690 7758.0
18.58190 7477.0
18.59690 7332.0
18.61190 6992.0
18.62690 6761.0
18.64190 6715.0
18.65690 6445.0
18.67190 6265.0
18.68690 5945.0
18.70190 5947.0
18.71690 5634.0
18.73190 5491.0
18.74690 5528.0
18.76190 5318.0
18.77690 5116.0
18.79190 5036.0
18.80690 4896.0
18.82190 4668.0
18.83690 4430.0
18.85190 4448.0
18.86690 4291.0
18.88190 3955.0
18.89690 3997.0
18.91190 3899.0
18.92690 3751.0
18.94190 3624.0
18.95690 3538.0
18.97190 3446.0
18.98690 3375.0
19.00190 3100.0
19.01690 2999.0
19.03190 2958.0
19.04690 2766.0
19.06190 2723.0
19.07690 2665.0
19.09190 2476.0
19.10690 2426.0
19.12190 2384.0
19.13690 2318.0
19.15190 2202.0
19.16690 2203.0
19.18190 2032.0
19.19690 1975.0
19.21190 1960.0
19.22690 1897.0
19.24190 1797.0
19.25690 1859.0
19.27190 1805.0
19.28690 1712.0
19.30190 1677.0
19.31690 1616.0
19.33190 1487.0
19.34690 1379.0
19.36190 1363.0
19.37690 1431.0
19.39190 1305.0
19.40690 1319.0
19.42190 1239.0
19.43690 1279.0
19.45190 1234.0
19.46690 1177.0
19.48190 1134.0
19.49690 1105.0
19.51190 1060.0
19.52690 1033.0
19.54190 962.0
19.55690 934.0
19.57190 947.0
19.58690 911.0
19.60190 891.0
19.61690 928.0
19.63190 858.0
19.64690 901.0
19.66190 818.0
19.67690 780.0
19.69190 759.0
19.70690 779.0
19.72190 707.0
19.73690 694.0
19.75190 696.0
19.76690 662.0
19.78190 650.0
19.79690 631.0
19.81190 663.0
19.82690 612.0
19.84190 636.0
19.85690 557.0
19.87190 567.0
19.88690 570.0
19.90190 535.0
19.91690 502.0
19.93190 549.0
19.94690 498.0
19.96190 513.0
19.97690 487.0
19.99190 458.0
20.00690 468.0
20.02190 427.0
20.03690 431.0
20.05190 427.0
20.06690 397.0
20.08190 468.0
20.09690 383.0
20.11190 392.0
20.12690 416.0
20.14190 404.0
20.15690 393.0
20.17190 392.0
20.18690 344.0
20.20190 384.0
20.21690 360.0