Folder: DataAnalysis/data/W6817r/XRD_Omega

Note: data/W6817r/XRD_Omega/W6817r_omega_peaks.TXT
No.	Pos. [記mega]	FWHM Left [記mega]	Area [cts*記mega]	Backgr.[cts]	d-spacing [魔	Height [cts]	Shape Left	Status	Integral Breadth [記mega]	FWHM Right [記mega]	Shape Right	Obs. Lorentz B [記mega]	Obs. Gauss B [記mega]	Instr. Lorentz B [記mega]	Instr. Gauss B [記mega]	Crystallite Size [魔	Micro Strain [%]	Crystallite Size only [魔	Micro Strain only [%]
1	25,579(3)	1,25(4)	442,53	28,25	 	322(25)	0,1(2)	Included	1,375245	 	 	0,177441	1,259771	0,074543	0,063148	879,665600	2,418441	68,356950	2,545248

Note: README.md
# Methods
## RSM analysis

Check out [doc](documentation/RSM.md)

File: w6817r_scan_omega.xy
23.67630 37.0
23.69130 47.0
23.70630 38.0
23.72130 43.0
23.73630 31.0
23.75130 36.0
23.76630 39.0
23.78130 35.0
23.79630 44.0
23.81130 39.0
23.82630 60.0
23.84130 49.0
23.85630 58.0
23.87130 49.0
23.88630 42.0
23.90130 33.0
23.91630 32.0
23.93130 45.0
23.94630 48.0
23.96130 54.0
23.97630 42.0
23.99130 37.0
24.00630 51.0
24.02130 57.0
24.03630 49.0
24.05130 43.0
24.06630 52.0
24.08130 62.0
24.09630 41.0
24.11130 60.0
24.12630 49.0
24.14130 51.0
24.15630 53.0
24.17130 46.0
24.18630 58.0
24.20130 57.0
24.21630 65.0
24.23130 59.0
24.24630 51.0
24.26130 61.0
24.27630 59.0
24.29130 78.0
24.30630 59.0
24.32130 59.0
24.33630 55.0
24.35130 68.0
24.36630 47.0
24.38130 90.0
24.39630 72.0
24.41130 69.0
24.42630 64.0
24.44130 58.0
24.45630 87.0
24.47130 74.0
24.48630 90.0
24.50130 80.0
24.51630 104.0
24.53130 99.0
24.54630 91.0
24.56130 116.0
24.57630 104.0
24.59130 117.0
24.60630 122.0
24.62130 129.0
24.63630 135.0
24.65130 137.0
24.66630 147.0
24.68130 163.0
24.69630 183.0
24.71130 199.0
24.72630 181.0
24.74130 181.0
24.75630 197.0
24.77130 238.0
24.78630 194.0
24.80130 218.0
24.81630 214.0
24.83130 250.0
24.84630 254.0
24.86130 242.0
24.87630 249.0
24.89130 287.0
24.90630 242.0
24.92130 274.0
24.93630 244.0
24.95130 254.0
24.96630 230.0
24.98130 249.0
24.99630 282.0
25.01130 267.0
25.02630 272.0
25.04130 279.0
25.05630 317.0
25.07130 318.0
25.08630 338.0
25.10130 316.0
25.11630 330.0
25.13130 339.0
25.14630 348.0
25.16130 362.0
25.17630 355.0
25.19130 368.0
25.20630 413.0
25.22130 383.0
25.23630 363.0
25.25130 408.0
25.26630 416.0
25.28130 420.0
25.29630 416.0
25.31130 448.0
25.32630 447.0
25.34130 437.0
25.35630 439.0
25.37130 429.0
25.38630 475.0
25.40130 474.0
25.41630 499.0
25.43130 461.0
25.44630 445.0
25.46130 475.0
25.47630 525.0
25.49130 442.0
25.50630 516.0
25.52130 515.0
25.53630 506.0
25.55130 546.0
25.56630 503.0
25.58130 522.0
25.59630 529.0
25.61130 498.0
25.62630 522.0
25.64130 510.0
25.65630 511.0
25.67130 479.0
25.68630 545.0
25.70130 550.0
25.71630 516.0
25.73130 510.0
25.74630 533.0
25.76130 512.0
25.77630 472.0
25.79130 465.0
25.80630 475.0
25.82130 507.0
25.83630 502.0
25.85130 499.0
25.86630 454.0
25.88130 475.0
25.89630 466.0
25.91130 442.0
25.92630 421.0
25.94130 420.0
25.95630 406.0
25.97130 411.0
25.98630 390.0
26.00130 417.0
26.01630 365.0
26.03130 346.0
26.04630 345.0
26.06130 405.0
26.07630 353.0
26.09130 317.0
26.10630 335.0
26.12130 364.0
26.13630 319.0
26.15130 335.0
26.16630 269.0
26.18130 298.0
26.19630 306.0
26.21130 277.0
26.22630 240.0
26.24130 248.0
26.25630 279.0
26.27130 263.0
26.28630 217.0
26.30130 209.0
26.31630 225.0
26.33130 243.0
26.34630 197.0
26.36130 205.0
26.37630 183.0
26.39130 175.0
26.40630 171.0
26.42130 152.0
26.43630 179.0
26.45130 134.0
26.46630 151.0
26.48130 142.0
26.49630 147.0
26.51130 141.0
26.52630 120.0
26.54130 137.0
26.55630 135.0
26.57130 133.0
26.58630 127.0
26.60130 108.0
26.61630 105.0
26.63130 110.0
26.64630 95.0
26.66130 90.0
26.67630 86.0
26.69130 91.0
26.70630 98.0
26.72130 73.0
26.73630 86.0
26.75130 80.0
26.76630 70.0
26.78130 71.0
26.79630 76.0
26.81130 66.0
26.82630 55.0
26.84130 61.0
26.85630 75.0
26.87130 56.0
26.88630 60.0
26.90130 58.0
26.91630 54.0
26.93130 51.0
26.94630 52.0
26.96130 48.0
26.97630 59.0
26.99130 47.0
27.00630 51.0
27.02130 48.0
27.03630 54.0
27.05130 63.0
27.06630 36.0
27.08130 57.0
27.09630 38.0
27.11130 52.0
27.12630 53.0
27.14130 44.0
27.15630 48.0
27.17130 32.0
27.18630 35.0
27.20130 36.0
27.21630 42.0
27.23130 40.0
27.24630 41.0
27.26130 42.0
27.27630 40.0
27.29130 41.0
27.30630 40.0
27.32130 40.0
27.33630 41.0
27.35130 45.0
27.36630 35.0
27.38130 45.0
27.39630 35.0
27.41130 36.0
27.42630 29.0
27.44130 46.0
27.45630 25.0
27.47130 30.0
27.48630 49.0
27.50130 44.0
27.51630 36.0
27.53130 31.0
27.54630 36.0
27.56130 32.0
27.57630 44.0
27.59130 39.0
27.60630 35.0
27.62130 33.0
27.63630 33.0
27.65130 37.0
27.65630 37.0