Folder: DataAnalysis/data/W6858r/XRD_Omega

Note: README.md
# Methods
## RSM analysis

Check out [doc](documentation/RSM.md)

File: W6858r_Cr2O3_scan_omega_2deg_step_0.002deg0_10.xy
11.38930 546.0
11.39730 585.0
11.40530 600.0
11.41330 571.0
11.42130 595.0
11.42930 635.0
11.43730 549.0
11.44530 588.0
11.45330 592.0
11.46130 616.0
11.46930 591.0
11.47730 640.0
11.48530 593.0
11.49330 608.0
11.50130 662.0
11.50930 707.0
11.51730 673.0
11.52530 643.0
11.53330 588.0
11.54130 731.0
11.54930 671.0
11.55730 722.0
11.56530 680.0
11.57330 699.0
11.58130 718.0
11.58930 728.0
11.59730 724.0
11.60530 720.0
11.61330 741.0
11.62130 783.0
11.62930 762.0
11.63730 716.0
11.64530 764.0
11.65330 726.0
11.66130 782.0
11.66930 791.0
11.67730 794.0
11.68530 835.0
11.69330 815.0
11.70130 837.0
11.70930 918.0
11.71730 918.0
11.72530 894.0
11.73330 940.0
11.74130 978.0
11.74930 962.0
11.75730 988.0
11.76530 967.0
11.77330 963.0
11.78130 954.0
11.78930 993.0
11.79730 1059.0
11.80530 1017.0
11.81330 1085.0
11.82130 975.0
11.82930 1065.0
11.83730 1036.0
11.84530 1108.0
11.85330 1028.0
11.86130 1082.0
11.86930 1154.0
11.87730 1107.0
11.88530 1094.0
11.89330 1144.0
11.90130 1167.0
11.90930 1168.0
11.91730 1156.0
11.92530 1175.0
11.93330 1128.0
11.94130 1187.0
11.94930 1127.0
11.95730 1292.0
11.96530 1267.0
11.97330 1274.0
11.98130 1263.0
11.98930 1314.0
11.99730 1213.0
12.00530 1315.0
12.01330 1350.0
12.02130 1383.0
12.02930 1383.0
12.03730 1372.0
12.04530 1292.0
12.05330 1352.0
12.06130 1412.0
12.06930 1333.0
12.07730 1446.0
12.08530 1428.0
12.09330 1496.0
12.10130 1433.0
12.10930 1473.0
12.11730 1546.0
12.12530 1570.0
12.13330 1514.0
12.14130 1610.0
12.14930 1577.0
12.15730 1711.0
12.16530 1723.0
12.17330 1712.0
12.18130 1732.0
12.18930 1800.0
12.19730 1840.0
12.20530 2013.0
12.21330 1951.0
12.22130 2000.0
12.22930 2115.0
12.23730 2105.0
12.24530 2023.0
12.25330 2088.0
12.26130 2201.0
12.26930 2123.0
12.27730 2113.0
12.28530 2016.0
12.29330 2073.0
12.30130 2037.0
12.30930 1999.0
12.31730 2001.0
12.32530 1920.0
12.33330 2035.0
12.34130 2018.0
12.34930 2137.0
12.35730 2571.0
12.36530 2933.0
12.37330 3471.0
12.38130 3620.0
12.38930 3242.0
12.39730 2935.0
12.40530 2494.0
12.41330 2297.0
12.42130 2154.0
12.42930 2244.0
12.43730 2250.0
12.44530 2275.0
12.45330 2290.0
12.46130 2324.0
12.46930 2137.0
12.47730 2085.0
12.48530 2045.0
12.49330 1905.0
12.50130 1832.0
12.50930 1800.0
12.51730 1758.0
12.52530 1761.0
12.53330 1653.0
12.54130 1574.0
12.54930 1654.0
12.55730 1575.0
12.56530 1629.0
12.57330 1494.0
12.58130 1552.0
12.58930 1492.0
12.59730 1548.0
12.60530 1540.0
12.61330 1513.0
12.62130 1516.0
12.62930 1455.0
12.63730 1485.0
12.64530 1499.0
12.65330 1516.0
12.66130 1541.0
12.66930 1572.0
12.67730 1569.0
12.68530 1543.0
12.69330 1594.0
12.70130 1629.0
12.70930 1682.0
12.71730 1655.0
12.72530 1746.0
12.73330 1801.0
12.74130 1877.0
12.74930 1839.0
12.75730 1980.0
12.76530 2022.0
12.77330 2161.0
12.78130 2240.0
12.78930 2399.0
12.79730 2566.0
12.80530 2819.0
12.81330 2966.0
12.82130 3208.0
12.82930 3485.0
12.83730 4063.0
12.84530 5102.0
12.85330 6915.0
12.86130 8843.0
12.86930 10786.0
12.87730 13407.0
12.88530 20153.0
12.89330 46548.0
12.90130 133118.0
12.90930 302296.0
12.91730 460549.0
12.92530 455100.0
12.93330 355031.0
12.94130 267093.0
12.94930 209693.0
12.95730 142315.0
12.96530 77728.0
12.97330 34545.0
12.98130 12918.0
12.98930 4705.0
12.99730 2339.0
13.00530 1685.0
13.01330 1370.0
13.02130 1160.0
13.02930 1097.0
13.03730 963.0
13.04530 940.0
13.05330 794.0
13.06130 822.0
13.06930 750.0
13.07730 708.0
13.08530 749.0
13.09330 692.0
13.10130 684.0
13.10930 699.0
13.11730 627.0
13.12530 635.0
13.13330 603.0
13.14130 675.0
13.14930 627.0
13.15730 544.0
13.16530 661.0
13.17330 569.0
13.18130 570.0
13.18930 546.0
13.19730 518.0
13.20530 583.0
13.21330 563.0
13.22130 511.0
13.22930 572.0
13.23730 515.0
13.24530 518.0
13.25330 542.0
13.26130 544.0
13.26930 519.0
13.27730 520.0
13.28530 504.0
13.29330 495.0
13.30130 493.0
13.30930 482.0
13.31730 461.0
13.32530 469.0
13.33330 485.0
13.34130 449.0
13.34930 461.0
13.35730 427.0
13.36530 470.0
13.37330 423.0