Folder: DataAnalysis/data/W6858r/XRD_2ThetaOmega

Note: data/W6858r/XRD_2ThetaOmega/W6858r_peaks.TXT
No.	Label	Pos. [°2Th.]	FWHM Left [°2Th.]	Area [cts*°2Th.]	Backgr.[cts]	d-spacing [Å]	Height [cts]	Shape Left	Status	Integral Breadth [°2Th.]	FWHM Right [°2Th.]	Shape Right	Obs. Lorentz B [°2Th.]	Obs. Gauss B [°2Th.]	Instr. Lorentz B [°2Th.]	Instr. Gauss B [°2Th.]	Crystallite Size [Å]	Micro Strain [%]	Crystallite Size only [Å]	Micro Strain only [%]
1	Cr2O3 0 1 2	24,3125(8)	0,267(3)	163,46	17,83	3,65801	457(4)	0,63(2)	Included	0,357737	 	 	0,239360	0,183268	0,074667	0,063253	548,260300	0,348417	310,208000	0,589606
2	Al2O3 0 1 2	25,52229(3)	0,04689(7)	2653,44	18,03	3,48730	48325(80)	0,283(2)	Included	0,054908	 	 	0,017349	0,043100	0,074548	0,063152	-1582,271000	-0,088927	28617,080000	0,006093
3	Cr2O3 0 2 4	49,917(2)	0,468(4)	79,36	22,94	1,82551	159(2)	0,00(3)	Included	0,497824	 	 	0,001218	0,497824	0,074533	0,063143	-1327,989000	0,462934	197,145600	0,462986
4	Al2O3 0 2 4	52,49973(3)	0,05386(9)	2967,59	25,56	1,74163	44477(71)	0,437(2)	Included	0,066721	 	 	0,031769	0,044530	0,074846	0,063408	-2284,728000	-0,039940	31119,460000	0,002798
5	Cr2O3 0 3 6	78,53(2)	0,71(5)	6,43	12,33	1,21706	8(1)	0,0(4)	Included	0,757314	 	 	0,001852	0,757314	0,082917	0,070244	-1406,429000	0,402468	151,182200	0,402513
6	Al2O3 0 3 6	83,1743(2)	0,0676(4)	180,62	13,79	1,16051	2140(14)	0,457(9)	Included	0,084406	 	 	0,041921	0,055016	0,085587	0,072505	-2702,667000	-0,023219	37315,770000	0,001555
7	Al2O3 0 4 8	124,5869(1)	0,1018(4)	1244,88	22,93	0,87006	8731(26)	0,743(4)	Included	0,142575	 	 	0,110019	0,059499	0,144546	0,122422	-5498,579000	-0,024516	60029,270000	0,000725

Note: README.md
# Methods
## RSM analysis

Check out [doc](documentation/RSM.md)

File: W6858r_absolute_2th-om_10-130deg_PIXscan_17min_10.xy
10.0035 28.0
10.4072 17.0
10.811 17.0
11.2147 13.0
11.6185 15.0
12.0222 22.0
12.426 18.0
12.8298 30.0
13.2335 14.0
13.6373 17.0
14.041 17.0
14.4448 12.0
14.8485 17.0
15.2523 23.0
15.656 21.0
16.0598 10.0
16.4636 19.0
16.8673 18.0
17.2711 20.0
17.6748 15.0
18.0786 15.0
18.4823 14.0
18.8861 14.0
19.2899 18.0
19.6936 22.0
20.0974 14.0
20.5011 12.0
20.9049 5.0
21.3086 17.0
21.7124 12.0
22.1161 11.0
22.5199 15.0
22.9237 19.0
23.3274 22.0
23.7312 27.0
24.1349 209.0
24.5387 162.0
24.9424 48.0
25.3462 217.0
25.75 354.0
26.1537 91.0
26.5575 47.0
26.9612 24.0
27.365 12.0
27.7687 11.0
28.1725 18.0
28.5762 14.0
28.98 9.0
29.3838 24.0
29.7875 5.0
30.1913 10.0
30.595 5.0
30.9988 14.0
31.4025 10.0
31.8063 10.0
32.2101 12.0
32.6138 13.0
33.0176 17.0
33.4213 8.0
33.8251 11.0
34.2288 8.0
34.6326 5.0
35.0363 2.0
35.4401 5.0
35.8439 11.0
36.2476 11.0
36.6514 11.0
37.0551 11.0
37.4589 9.0
37.8626 8.0
38.2664 9.0
38.6702 9.0
39.0739 15.0
39.4777 5.0
39.8814 14.0
40.2852 10.0
40.6889 13.0
41.0927 10.0
41.4964 11.0
41.9002 14.0
42.304 6.0
42.7077 11.0
43.1115 11.0
43.5152 14.0
43.919 9.0
44.3227 22.0
44.7265 12.0
45.1303 16.0
45.534 9.0
45.9378 9.0
46.3415 10.0
46.7453 10.0
47.149 53.0
47.5528 18.0
47.9565 14.0
48.3603 10.0
48.7641 18.0
49.1678 21.0
49.5716 65.0
49.9753 223.0
50.3791 47.0
50.7828 27.0
51.1866 22.0
51.5903 32.0
51.9941 73.0
52.3979 1016.0
52.8016 426.0
53.2054 115.0
53.6091 63.0
54.0129 47.0
54.4166 29.0
54.8204 25.0
55.2242 23.0
55.6279 16.0
56.0317 13.0
56.4354 15.0
56.8392 19.0
57.2429 13.0
57.6467 19.0
58.0504 16.0
58.4542 18.0
58.858 13.0
59.2617 9.0
59.6655 9.0
60.0692 5.0
60.473 9.0
60.8767 10.0
61.2805 6.0
61.6843 10.0
62.088 9.0
62.4918 15.0
62.8955 10.0
63.2993 20.0
63.703 16.0
64.1068 18.0
64.5105 9.0
64.9143 12.0
65.3181 15.0
65.7218 12.0
66.1256 14.0
66.5293 11.0
66.9331 7.0
67.3368 13.0
67.7406 13.0
68.1444 9.0
68.5481 16.0
68.9519 8.0
69.3556 5.0
69.7594 5.0
70.1631 15.0
70.5669 6.0
70.9706 11.0
71.3744 14.0
71.7782 12.0
72.1819 13.0
72.5857 5.0
72.9894 9.0
73.3932 4.0
73.7969 19.0
74.2007 9.0
74.6045 19.0
75.0082 13.0
75.412 13.0
75.8157 7.0
76.2195 12.0
76.6232 7.0
77.027 10.0
77.4307 14.0
77.8345 9.0
78.2383 11.0
78.642 26.0
79.0458 18.0
79.4495 14.0
79.8533 13.0
80.257 10.0
80.6608 11.0
81.0646 12.0
81.4683 16.0
81.8721 15.0
82.2758 21.0
82.6796 15.0
83.0833 109.0
83.4871 197.0
83.8908 9.0
84.2946 15.0
84.6984 19.0
85.1021 20.0
85.5059 12.0
85.9096 16.0
86.3134 14.0
86.7171 10.0
87.1209 11.0
87.5247 12.0
87.9284 11.0
88.3322 6.0
88.7359 15.0
89.1397 11.0
89.5434 19.0
89.9472 12.0
90.3509 9.0
90.7547 9.0
91.1585 20.0
91.5622 11.0
91.966 6.0
92.3697 16.0
92.7735 16.0
93.1772 9.0
93.581 15.0
93.9848 19.0
94.3885 14.0
94.7923 10.0
95.196 11.0
95.5998 21.0
96.0035 15.0
96.4073 8.0
96.811 16.0
97.2148 15.0
97.6186 12.0
98.0223 11.0
98.4261 11.0
98.8298 13.0
99.2336 13.0
99.6373 18.0
100.041 21.0
100.445 5.0
100.849 12.0
101.252 20.0
101.656 13.0
102.06 8.0
102.464 14.0
102.867 8.0
103.271 18.0
103.675 3.0
104.079 8.0
104.482 16.0
104.886 12.0
105.29 16.0
105.694 15.0
106.097 11.0
106.501 7.0
106.905 14.0
107.309 19.0
107.712 7.0
108.116 8.0
108.52 13.0
108.924 9.0
109.327 15.0
109.731 12.0
110.135 14.0
110.539 18.0
110.943 13.0
111.346 15.0
111.75 23.0
112.154 7.0
112.558 8.0
112.961 12.0
113.365 8.0
113.769 16.0
114.173 12.0
114.576 20.0
114.98 15.0
115.384 12.0
115.788 20.0
116.191 30.0
116.595 25.0
116.999 24.0
117.403 21.0
117.806 13.0
118.21 9.0
118.614 15.0
119.018 16.0
119.421 12.0
119.825 11.0
120.229 16.0
120.633 21.0
121.036 12.0
121.44 14.0
121.844 26.0
122.248 13.0
122.651 20.0
123.055 24.0
123.459 27.0
123.863 46.0
124.266 139.0
124.67 2208.0
125.074 2118.0
125.478 104.0
125.881 45.0
126.285 32.0
126.689 31.0
127.093 24.0
127.497 25.0
127.9 15.0
128.304 13.0
128.708 20.0
129.112 21.0
129.515 19.0
129.919 16.0
129.998 24.0