Folder: DataAnalysis/data/W6959r/XRD_2ThetaOmega

Note: README.md
# Methods
## RSM analysis

Check out [doc](documentation/RSM.md)

File: r_scan_2th-om_10-130deg_PIXscan_17min_C2.xy
10.0035 39.0
10.4072 40.0
10.811 40.0
11.2147 49.0
11.6185 46.0
12.0222 41.0
12.426 55.0
12.8298 43.0
13.2335 36.0
13.6373 40.0
14.041 36.0
14.4448 20.0
14.8485 43.0
15.2523 32.0
15.656 35.0
16.0598 32.0
16.4636 28.0
16.8673 31.0
17.2711 34.0
17.6748 32.0
18.0786 36.0
18.4823 26.0
18.8861 41.0
19.2899 23.0
19.6936 22.0
20.0974 29.0
20.5011 26.0
20.9049 25.0
21.3086 25.0
21.7124 25.0
22.1161 40.0
22.5199 37.0
22.9237 36.0
23.3274 34.0
23.7312 59.0
24.1349 168.0
24.5387 1042.0
24.9424 109.0
25.3462 409.0
25.75 426.0
26.1537 49.0
26.5575 28.0
26.9612 31.0
27.365 32.0
27.7687 23.0
28.1725 27.0
28.5762 29.0
28.98 29.0
29.3838 22.0
29.7875 14.0
30.1913 25.0
30.595 21.0
30.9988 38.0
31.4025 24.0
31.8063 17.0
32.2101 29.0
32.6138 23.0
33.0176 21.0
33.4213 19.0
33.8251 18.0
34.2288 24.0
34.6326 31.0
35.0363 30.0
35.4401 25.0
35.8439 19.0
36.2476 24.0
36.6514 29.0
37.0551 24.0
37.4589 24.0
37.8626 24.0
38.2664 23.0
38.6702 35.0
39.0739 23.0
39.4777 23.0
39.8814 18.0
40.2852 28.0
40.6889 21.0
41.0927 20.0
41.4964 20.0
41.9002 27.0
42.304 24.0
42.7077 23.0
43.1115 30.0
43.5152 38.0
43.919 24.0
44.3227 38.0
44.7265 27.0
45.1303 33.0
45.534 32.0
45.9378 33.0
46.3415 23.0
46.7453 28.0
47.149 182.0
47.5528 27.0
47.9565 32.0
48.3603 23.0
48.7641 37.0
49.1678 43.0
49.5716 85.0
49.9753 1475.0
50.3791 312.0
50.7828 59.0
51.1866 61.0
51.5903 87.0
51.9941 136.0
52.3979 1631.0
52.8016 720.0
53.2054 130.0
53.6091 68.0
54.0129 49.0
54.4166 36.0
54.8204 32.0
55.2242 35.0
55.6279 43.0
56.0317 22.0
56.4354 19.0
56.8392 32.0
57.2429 34.0
57.6467 26.0
58.0504 24.0
58.4542 29.0
58.858 38.0
59.2617 34.0
59.6655 24.0
60.0692 39.0
60.473 26.0
60.8767 25.0
61.2805 27.0
61.6843 27.0
62.088 31.0
62.4918 30.0
62.8955 33.0
63.2993 30.0
63.703 27.0
64.1068 36.0
64.5105 25.0
64.9143 27.0
65.3181 31.0
65.7218 24.0
66.1256 39.0
66.5293 36.0
66.9331 21.0
67.3368 33.0
67.7406 27.0
68.1444 29.0
68.5481 21.0
68.9519 33.0
69.3556 28.0
69.7594 42.0
70.1631 29.0
70.5669 32.0
70.9706 25.0
71.3744 26.0
71.7782 25.0
72.1819 29.0
72.5857 24.0
72.9894 32.0
73.3932 37.0
73.7969 27.0
74.2007 34.0
74.6045 25.0
75.0082 36.0
75.412 32.0
75.8157 40.0
76.2195 37.0
76.6232 40.0
77.027 41.0
77.4307 38.0
77.8345 24.0
78.2383 41.0
78.642 67.0
79.0458 80.0
79.4495 24.0
79.8533 35.0
80.257 34.0
80.6608 34.0
81.0646 29.0
81.4683 24.0
81.8721 26.0
82.2758 48.0
82.6796 42.0
83.0833 184.0
83.4871 513.0
83.8908 38.0
84.2946 28.0
84.6984 30.0
85.1021 34.0
85.5059 34.0
85.9096 34.0
86.3134 28.0
86.7171 33.0
87.1209 28.0
87.5247 31.0
87.9284 25.0
88.3322 34.0
88.7359 35.0
89.1397 34.0
89.5434 26.0
89.9472 27.0
90.3509 31.0
90.7547 39.0
91.1585 29.0
91.5622 31.0
91.966 38.0
92.3697 27.0
92.7735 33.0
93.1772 34.0
93.581 34.0
93.9848 22.0
94.3885 34.0
94.7923 38.0
95.196 27.0
95.5998 30.0
96.0035 31.0
96.4073 36.0
96.811 35.0
97.2148 25.0
97.6186 36.0
98.0223 35.0
98.4261 35.0
98.8298 31.0
99.2336 44.0
99.6373 29.0
100.041 30.0
100.445 35.0
100.849 22.0
101.252 27.0
101.656 39.0
102.06 29.0
102.464 30.0
102.867 30.0
103.271 25.0
103.675 42.0
104.079 30.0
104.482 31.0
104.886 29.0
105.29 28.0
105.694 37.0
106.097 34.0
106.501 43.0
106.905 30.0
107.309 28.0
107.712 37.0
108.116 31.0
108.52 32.0
108.924 43.0
109.327 35.0
109.731 35.0
110.135 27.0
110.539 30.0
110.943 25.0
111.346 31.0
111.75 35.0
112.154 26.0
112.558 28.0
112.961 28.0
113.365 27.0
113.769 30.0
114.173 35.0
114.576 25.0
114.98 43.0
115.384 59.0
115.788 82.0
116.191 68.0
116.595 43.0
116.999 40.0
117.403 34.0
117.806 36.0
118.21 18.0
118.614 26.0
119.018 25.0
119.421 28.0
119.825 35.0
120.229 37.0
120.633 36.0
121.036 25.0
121.44 43.0
121.844 35.0
122.248 54.0
122.651 33.0
123.055 47.0
123.459 64.0
123.863 103.0
124.266 270.0
124.67 3517.0
125.074 2959.0
125.478 151.0
125.881 73.0
126.285 59.0
126.689 50.0
127.093 36.0
127.497 44.0
127.9 31.0
128.304 38.0
128.708 42.0
129.112 29.0
129.515 30.0
129.919 31.0
129.998 31.0