Folder: DataAnalysis/data/W6816c1/XRD_2ThetaOmega

Note: data/W6816c1/XRD_2ThetaOmega/W6816c1_peaks.TXT
No.	Label	Pos. [°2Th.]	FWHM Left [°2Th.]	Area [cts*°2Th.]	Backgr.[cts]	d-spacing [Å]	Height [cts]	Shape Left	Status	Integral Breadth [°2Th.]	FWHM Right [°2Th.]	Shape Right	Obs. Lorentz B [°2Th.]	Obs. Gauss B [°2Th.]	Instr. Lorentz B [°2Th.]	Instr. Gauss B [°2Th.]	Crystallite Size [Å]	Micro Strain [%]	Crystallite Size only [Å]	Micro Strain only [%]
1	Cr2O3 0 0 6	39,007(1)	0,250(5)	53,90	17,99	2,30723	163(3)	0,61(3)	Included	0,330315	 	 	0,212482	0,176528	0,073932	0,062632	675,874800	0,203322	354,748900	0,325192
2	Al2O3 0 0 6	41,60318(8)	0,0517(2)	460,36	20,08	2,16904	7649(29)	0,264(5)	Included	0,060189	 	 	0,017847	0,048081	0,073977	0,062671	-1682,253000	-0,046170	29856,390000	0,003632
3	Cr2O3 0 0 12	83,965(7)	0,53(2)	19,52	14,75	1,15159	28(2)	0,5(1)	Included	0,686653	 	 	0,394452	0,405812	0,086090	0,072930	385,086400	0,193573	192,235600	0,299525
4	Al2O3 0 0 12	90,66757(9)	0,0707(2)	788,67	16,68	1,08308	8477(30)	0,594(5)	Included	0,093036	 	 	0,058735	0,050657	0,090985	0,077074	-3893,479000	-0,025053	39702,990000	0,001364

Note: README.md
# Methods
## RSM analysis

Check out [doc](documentation/RSM.md)

File: W6816c1_absolute_2th-om_10-130deg_PIXscan_17min_11.xy
10.0035 19.0
10.4072 32.0
10.811 21.0
11.2147 19.0
11.6185 24.0
12.0222 23.0
12.426 27.0
12.8298 16.0
13.2335 14.0
13.6373 20.0
14.041 20.0
14.4448 26.0
14.8485 27.0
15.2523 18.0
15.656 20.0
16.0598 19.0
16.4636 18.0
16.8673 20.0
17.2711 21.0
17.6748 16.0
18.0786 17.0
18.4823 19.0
18.8861 20.0
19.2899 19.0
19.6936 11.0
20.0974 21.0
20.5011 17.0
20.9049 13.0
21.3086 22.0
21.7124 9.0
22.1161 15.0
22.5199 17.0
22.9237 13.0
23.3274 15.0
23.7312 10.0
24.1349 10.0
24.5387 16.0
24.9424 11.0
25.3462 12.0
25.75 14.0
26.1537 14.0
26.5575 11.0
26.9612 17.0
27.365 13.0
27.7687 5.0
28.1725 15.0
28.5762 18.0
28.98 15.0
29.3838 5.0
29.7875 11.0
30.1913 14.0
30.595 7.0
30.9988 14.0
31.4025 17.0
31.8063 9.0
32.2101 12.0
32.6138 18.0
33.0176 13.0
33.4213 10.0
33.8251 13.0
34.2288 7.0
34.6326 12.0
35.0363 9.0
35.4401 7.0
35.8439 13.0
36.2476 13.0
36.6514 11.0
37.0551 10.0
37.4589 24.0
37.8626 21.0
38.2664 20.0
38.6702 47.0
39.0739 236.0
39.4777 26.0
39.8814 20.0
40.2852 21.0
40.6889 16.0
41.0927 27.0
41.4964 106.0
41.9002 56.0
42.304 23.0
42.7077 20.0
43.1115 10.0
43.5152 11.0
43.919 10.0
44.3227 24.0
44.7265 16.0
45.1303 8.0
45.534 7.0
45.9378 12.0
46.3415 11.0
46.7453 15.0
47.149 8.0
47.5528 13.0
47.9565 13.0
48.3603 8.0
48.7641 16.0
49.1678 11.0
49.5716 12.0
49.9753 11.0
50.3791 12.0
50.7828 14.0
51.1866 13.0
51.5903 7.0
51.9941 6.0
52.3979 12.0
52.8016 8.0
53.2054 9.0
53.6091 20.0
54.0129 11.0
54.4166 10.0
54.8204 17.0
55.2242 12.0
55.6279 13.0
56.0317 13.0
56.4354 12.0
56.8392 11.0
57.2429 9.0
57.6467 15.0
58.0504 13.0
58.4542 10.0
58.858 12.0
59.2617 11.0
59.6655 14.0
60.0692 9.0
60.473 16.0
60.8767 15.0
61.2805 10.0
61.6843 13.0
62.088 4.0
62.4918 11.0
62.8955 6.0
63.2993 11.0
63.703 14.0
64.1068 15.0
64.5105 16.0
64.9143 14.0
65.3181 8.0
65.7218 7.0
66.1256 9.0
66.5293 11.0
66.9331 15.0
67.3368 11.0
67.7406 13.0
68.1444 10.0
68.5481 9.0
68.9519 13.0
69.3556 11.0
69.7594 8.0
70.1631 14.0
70.5669 15.0
70.9706 23.0
71.3744 12.0
71.7782 12.0
72.1819 11.0
72.5857 11.0
72.9894 18.0
73.3932 19.0
73.7969 13.0
74.2007 20.0
74.6045 12.0
75.0082 14.0
75.412 19.0
75.8157 9.0
76.2195 11.0
76.6232 17.0
77.027 7.0
77.4307 20.0
77.8345 9.0
78.2383 13.0
78.642 13.0
79.0458 10.0
79.4495 17.0
79.8533 15.0
80.257 12.0
80.6608 10.0
81.0646 12.0
81.4683 19.0
81.8721 14.0
82.2758 18.0
82.6796 18.0
83.0833 15.0
83.4871 21.0
83.8908 55.0
84.2946 39.0
84.6984 24.0
85.1021 14.0
85.5059 14.0
85.9096 48.0
86.3134 20.0
86.7171 19.0
87.1209 15.0
87.5247 10.0
87.9284 17.0
88.3322 15.0
88.7359 11.0
89.1397 28.0
89.5434 27.0
89.9472 15.0
90.3509 60.0
90.7547 799.0
91.1585 105.0
91.5622 33.0
91.966 24.0
92.3697 25.0
92.7735 20.0
93.1772 21.0
93.581 10.0
93.9848 7.0
94.3885 13.0
94.7923 9.0
95.196 11.0
95.5998 15.0
96.0035 15.0
96.4073 17.0
96.811 12.0
97.2148 9.0
97.6186 14.0
98.0223 12.0
98.4261 13.0
98.8298 8.0
99.2336 9.0
99.6373 18.0
100.041 13.0
100.445 14.0
100.849 14.0
101.252 12.0
101.656 20.0
102.06 10.0
102.464 8.0
102.867 12.0
103.271 10.0
103.675 18.0
104.079 15.0
104.482 12.0
104.886 12.0
105.29 9.0
105.694 18.0
106.097 15.0
106.501 9.0
106.905 11.0
107.309 10.0
107.712 11.0
108.116 11.0
108.52 14.0
108.924 16.0
109.327 10.0
109.731 8.0
110.135 19.0
110.539 19.0
110.943 11.0
111.346 16.0
111.75 14.0
112.154 17.0
112.558 10.0
112.961 7.0
113.365 20.0
113.769 12.0
114.173 16.0
114.576 6.0
114.98 9.0
115.384 15.0
115.788 16.0
116.191 18.0
116.595 20.0
116.999 10.0
117.403 11.0
117.806 17.0
118.21 15.0
118.614 11.0
119.018 14.0
119.421 19.0
119.825 16.0
120.229 19.0
120.633 15.0
121.036 14.0
121.44 11.0
121.844 18.0
122.248 13.0
122.651 9.0
123.055 13.0
123.459 9.0
123.863 11.0
124.266 8.0
124.67 16.0
125.074 14.0
125.478 16.0
125.881 19.0
126.285 6.0
126.689 15.0
127.093 8.0
127.497 19.0
127.9 18.0
128.304 19.0
128.708 21.0
129.112 15.0
129.515 13.0
129.919 14.0
129.998 17.0