Folder: DataAnalysis/data/W6816c1/XRD_Omega

Note: data/W6816c1/XRD_Omega/W6816c1_omega_peaks.TXT
No.	Label	Pos. [記mega]	FWHM Left [記mega]	Area [cts*記mega]	Backgr.[cts]	d-spacing [魔	Height [cts]	Shape Left	Status	Integral Breadth [記mega]	FWHM Right [記mega]	Shape Right	Obs. Lorentz B [記mega]	Obs. Gauss B [記mega]	Instr. Lorentz B [記mega]	Instr. Gauss B [記mega]	Crystallite Size [魔	Micro Strain [%]	Crystallite Size only [魔	Micro Strain only [%]
1	Cr2O3 0 0 6	19,5859(4)	0,183(2)	267,47	24,02	 	1071(7)	0,68(1)	Included	0,249816	 	 	0,178186	0,118158	0,075222	0,063721	869,959800	0,251540	513,284600	0,441161

Note: README.md
# Methods
## RSM analysis

Check out [doc](documentation/RSM.md)

File: scan_omega_4deg_step_0.005deg0_C3.xy
17.61730 31.0
17.63230 37.0
17.64730 24.0
17.66230 25.0
17.67730 39.0
17.69230 46.0
17.70730 35.0
17.72230 25.0
17.73730 28.0
17.75230 34.0
17.76730 28.0
17.78230 38.0
17.79730 28.0
17.81230 42.0
17.82730 36.0
17.84230 27.0
17.85730 29.0
17.87230 33.0
17.88730 37.0
17.90230 30.0
17.91730 32.0
17.93230 24.0
17.94730 38.0
17.96230 40.0
17.97730 33.0
17.99230 41.0
18.00730 37.0
18.02230 23.0
18.03730 41.0
18.05230 36.0
18.06730 23.0
18.08230 29.0
18.09730 33.0
18.11230 38.0
18.12730 38.0
18.14230 32.0
18.15730 27.0
18.17230 29.0
18.18730 23.0
18.20230 29.0
18.21730 35.0
18.23230 32.0
18.24730 33.0
18.26230 32.0
18.27730 36.0
18.29230 33.0
18.30730 33.0
18.32230 30.0
18.33730 39.0
18.35230 33.0
18.36730 31.0
18.38230 31.0
18.39730 34.0
18.41230 34.0
18.42730 31.0
18.44230 28.0
18.45730 31.0
18.47230 32.0
18.48730 31.0
18.50230 33.0
18.51730 45.0
18.53230 42.0
18.54730 31.0
18.56230 32.0
18.57730 32.0
18.59230 37.0
18.60730 43.0
18.62230 55.0
18.63730 42.0
18.65230 32.0
18.66730 43.0
18.68230 38.0
18.69730 40.0
18.71230 42.0
18.72730 32.0
18.74230 40.0
18.75730 40.0
18.77230 39.0
18.78730 42.0
18.80230 35.0
18.81730 41.0
18.83230 48.0
18.84730 33.0
18.86230 46.0
18.87730 51.0
18.89230 55.0
18.90730 39.0
18.92230 37.0
18.93730 61.0
18.95230 52.0
18.96730 55.0
18.98230 51.0
18.99730 49.0
19.01230 59.0
19.02730 51.0
19.04230 65.0
19.05730 62.0
19.07230 63.0
19.08730 46.0
19.10230 57.0
19.11730 60.0
19.13230 46.0
19.14730 72.0
19.16230 59.0
19.17730 65.0
19.19230 80.0
19.20730 66.0
19.22230 77.0
19.23730 87.0
19.25230 101.0
19.26730 95.0
19.28230 95.0
19.29730 110.0
19.31230 119.0
19.32730 100.0
19.34230 145.0
19.35730 151.0
19.37230 171.0
19.38730 207.0
19.40230 209.0
19.41730 260.0
19.43230 294.0
19.44730 343.0
19.46230 449.0
19.47730 588.0
19.49230 699.0
19.50730 821.0
19.52230 962.0
19.53730 1137.0
19.55230 1285.0
19.56730 1376.0
19.58230 1434.0
19.59730 1567.0
19.61230 1520.0
19.62730 1497.0
19.64230 1424.0
19.65730 1198.0
19.67230 998.0
19.68730 891.0
19.70230 744.0
19.71730 634.0
19.73230 508.0
19.74730 438.0
19.76230 356.0
19.77730 326.0
19.79230 276.0
19.80730 228.0
19.82230 222.0
19.83730 162.0
19.85230 135.0
19.86730 154.0
19.88230 122.0
19.89730 122.0
19.91230 91.0
19.92730 108.0
19.94230 81.0
19.95730 81.0
19.97230 59.0
19.98730 67.0
20.00230 60.0
20.01730 87.0
20.03230 68.0
20.04730 55.0
20.06230 31.0
20.07730 50.0
20.09230 49.0
20.10730 52.0
20.12230 51.0
20.13730 41.0
20.15230 43.0
20.16730 35.0
20.18230 28.0
20.19730 40.0
20.21230 45.0
20.22730 47.0
20.24230 45.0
20.25730 36.0
20.27230 42.0
20.28730 47.0
20.30230 43.0
20.31730 30.0
20.33230 41.0
20.34730 39.0
20.36230 31.0
20.37730 29.0
20.39230 32.0
20.40730 37.0
20.42230 39.0
20.43730 37.0
20.45230 47.0
20.46730 37.0
20.48230 48.0
20.49730 36.0
20.51230 34.0
20.52730 39.0
20.54230 47.0
20.55730 37.0
20.57230 35.0
20.58730 43.0
20.60230 34.0
20.61730 27.0
20.63230 29.0
20.64730 37.0
20.66230 38.0
20.67730 28.0
20.69230 34.0
20.70730 39.0
20.72230 33.0
20.73730 36.0
20.75230 26.0
20.76730 40.0
20.78230 35.0
20.79730 38.0
20.81230 39.0
20.82730 33.0
20.84230 24.0
20.85730 25.0
20.87230 24.0
20.88730 39.0
20.90230 37.0
20.91730 37.0
20.93230 19.0
20.94730 32.0
20.96230 33.0
20.97730 21.0
20.99230 28.0
21.00730 31.0
21.02230 33.0
21.03730 30.0
21.05230 29.0
21.06730 33.0
21.08230 36.0
21.09730 28.0
21.11230 37.0
21.12730 36.0
21.14230 37.0
21.15730 35.0
21.17230 27.0
21.18730 31.0
21.20230 32.0
21.21730 25.0
21.23230 33.0
21.24730 25.0
21.26230 35.0
21.27730 27.0
21.29230 30.0
21.30730 38.0
21.32230 36.0
21.33730 29.0
21.35230 37.0
21.36730 31.0
21.38230 17.0
21.39730 29.0
21.41230 31.0
21.42730 37.0
21.44230 31.0
21.45730 35.0
21.47230 35.0
21.48730 31.0
21.50230 28.0
21.51730 33.0
21.53230 33.0
21.54730 28.0
21.56230 34.0
21.57730 30.0