Folder: DataAnalysis/data/W6903c/XRD_2ThetaOmega

Note: data/W6903c/XRD_2ThetaOmega/W6903c_peaks.TXT
No.	Label	Pos. [°2Th.]	FWHM Left [°2Th.]	Area [cts*°2Th.]	Backgr.[cts]	d-spacing [Å]	Height [cts]	Shape Left	Status	Integral Breadth [°2Th.]	FWHM Right [°2Th.]	Shape Right	Obs. Lorentz B [°2Th.]	Obs. Gauss B [°2Th.]	Instr. Lorentz B [°2Th.]	Instr. Gauss B [°2Th.]	Crystallite Size [Å]	Micro Strain [%]	Crystallite Size only [Å]	Micro Strain only [%]
1	Cr2O3 0 0 6	39,5060(3)	0,280(1)	1372,68	133,27	2,27922	3682(11)	0,620(6)	Included	0,372794	 	 	0,244842	0,194943	0,073936	0,062636	548,772400	0,224312	304,737600	0,373965
2	Al2O3 0 0 6	41,62208(3)	0,05210(6)	4544,54	144,98	2,16810	73181(90)	0,332(2)	Included	0,062100	 	 	0,022865	0,046408	0,073977	0,062671	-1847,528000	-0,048351	29858,260000	0,003631

Note: README.md
# Methods
## RSM analysis

Check out [doc](documentation/RSM.md)

File: scan_2th-om_c_Cr2O3_35-45deg_PIXscan_4min_C4.xy
35.0021 140.0
35.0365 106.0
35.071 134.0
35.1055 144.0
35.1399 128.0
35.1744 126.0
35.2089 139.0
35.2433 128.0
35.2778 149.0
35.3123 149.0
35.3467 122.0
35.3812 133.0
35.4157 139.0
35.4501 143.0
35.4846 156.0
35.5191 137.0
35.5535 140.0
35.588 164.0
35.6225 151.0
35.6569 134.0
35.6914 127.0
35.7259 143.0
35.7603 118.0
35.7948 125.0
35.8293 127.0
35.8637 132.0
35.8982 135.0
35.9327 119.0
35.9671 115.0
36.0016 119.0
36.0361 136.0
36.0705 130.0
36.105 112.0
36.1395 140.0
36.1739 135.0
36.2084 126.0
36.2429 125.0
36.2773 143.0
36.3118 138.0
36.3463 130.0
36.3807 133.0
36.4152 140.0
36.4497 131.0
36.4841 132.0
36.5186 117.0
36.5531 110.0
36.5875 124.0
36.622 127.0
36.6565 117.0
36.6909 132.0
36.7254 129.0
36.7599 130.0
36.7943 122.0
36.8288 129.0
36.8633 140.0
36.8977 139.0
36.9322 138.0
36.9667 135.0
37.0011 135.0
37.0356 135.0
37.0701 134.0
37.1045 149.0
37.139 136.0
37.1735 128.0
37.2079 140.0
37.2424 120.0
37.2769 146.0
37.3114 142.0
37.3458 139.0
37.3803 145.0
37.4148 224.0
37.4492 348.0
37.4837 186.0
37.5182 152.0
37.5526 150.0
37.5871 138.0
37.6216 129.0
37.656 137.0
37.6905 139.0
37.725 129.0
37.7594 152.0
37.7939 134.0
37.8284 133.0
37.8628 149.0
37.8973 129.0
37.9318 138.0
37.9662 146.0
38.0007 142.0
38.0352 140.0
38.0696 128.0
38.1041 149.0
38.1386 141.0
38.173 167.0
38.2075 164.0
38.242 125.0
38.2764 164.0
38.3109 158.0
38.3454 145.0
38.3798 174.0
38.4143 191.0
38.4488 192.0
38.4832 195.0
38.5177 175.0
38.5522 184.0
38.5866 197.0
38.6211 197.0
38.6556 213.0
38.69 222.0
38.7245 226.0
38.759 239.0
38.7934 284.0
38.8279 284.0
38.8624 297.0
38.8968 324.0
38.9313 358.0
38.9658 406.0
39.0002 395.0
39.0347 509.0
39.0692 539.0
39.1036 591.0
39.1381 633.0
39.1726 800.0
39.207 919.0
39.2415 1010.0
39.276 1302.0
39.3104 1589.0
39.3449 1987.0
39.3794 2422.0
39.4138 2968.0
39.4483 3755.0
39.4828 4466.0
39.5172 5140.0
39.5517 5458.0
39.5862 5109.0
39.6206 4513.0
39.6551 3695.0
39.6896 3011.0
39.724 2229.0
39.7585 1570.0
39.793 1168.0
39.8274 878.0
39.8619 666.0
39.8964 547.0
39.9308 432.0
39.9653 374.0
39.9998 295.0
40.0342 284.0
40.0687 222.0
40.1032 267.0
40.1376 188.0
40.1721 199.0
40.2066 211.0
40.241 185.0
40.2755 167.0
40.31 174.0
40.3444 174.0
40.3789 175.0
40.4134 192.0
40.4478 164.0
40.4823 173.0
40.5168 163.0
40.5512 160.0
40.5857 188.0
40.6202 169.0
40.6546 161.0
40.6891 189.0
40.7236 173.0
40.758 180.0
40.7925 176.0
40.827 199.0
40.8615 172.0
40.8959 196.0
40.9304 196.0
40.9649 224.0
40.9993 202.0
41.0338 225.0
41.0683 218.0
41.1027 216.0
41.1372 255.0
41.1717 210.0
41.2061 310.0
41.2406 313.0
41.2751 338.0
41.3095 364.0
41.344 382.0
41.3785 570.0
41.4129 850.0
41.4474 1022.0
41.4819 1063.0
41.5163 1331.0
41.5508 2990.0
41.5853 19196.0
41.6197 67368.0
41.6542 28990.0
41.6887 9369.0
41.7231 32909.0
41.7576 19705.0
41.7921 2436.0
41.8265 1063.0
41.861 737.0
41.8955 533.0
41.9299 479.0
41.9644 384.0
41.9989 344.0
42.0333 326.0
42.0678 292.0
42.1023 289.0
42.1367 230.0
42.1712 226.0
42.2057 223.0
42.2401 214.0
42.2746 197.0
42.3091 191.0
42.3435 158.0
42.378 190.0
42.4125 158.0
42.4469 136.0
42.4814 168.0
42.5159 158.0
42.5503 184.0
42.5848 133.0
42.6193 138.0
42.6537 144.0
42.6882 139.0
42.7227 139.0
42.7571 167.0
42.7916 161.0
42.8261 139.0
42.8605 152.0
42.895 153.0
42.9295 149.0
42.9639 143.0
42.9984 149.0
43.0329 120.0
43.0673 142.0
43.1018 142.0
43.1363 142.0
43.1707 129.0
43.2052 155.0
43.2397 147.0
43.2741 162.0
43.3086 137.0
43.3431 137.0
43.3775 119.0
43.412 122.0
43.4465 142.0
43.4809 133.0
43.5154 139.0
43.5499 134.0
43.5843 126.0
43.6188 141.0
43.6533 155.0
43.6877 145.0
43.7222 148.0
43.7567 130.0
43.7911 154.0
43.8256 141.0
43.8601 149.0
43.8945 141.0
43.929 170.0
43.9635 133.0
43.9979 142.0
44.0324 154.0
44.0669 170.0
44.1013 165.0
44.1358 172.0
44.1703 164.0
44.2047 186.0
44.2392 225.0
44.2737 198.0
44.3081 239.0
44.3426 269.0
44.3771 264.0
44.4116 302.0
44.446 300.0
44.4805 259.0
44.515 286.0
44.5494 231.0
44.5839 201.0
44.6184 206.0
44.6528 180.0
44.6873 176.0
44.7218 154.0
44.7562 173.0
44.7907 179.0
44.8252 133.0
44.8596 140.0
44.8941 147.0
44.9286 132.0
44.963 151.0
44.9975 129.0