Folder: DataAnalysis/data/W6903c/XRD_Omega

Note: data/W6903c/XRD_Omega/W6903c_omega_peaks.TXT
No.	Label	Pos. [記mega]	FWHM Left [記mega]	Area [cts*記mega]	Backgr.[cts]	d-spacing [魔	Height [cts]	Shape Left	Status	Integral Breadth [記mega]	FWHM Right [記mega]	Shape Right	Obs. Lorentz B [記mega]	Obs. Gauss B [記mega]	Instr. Lorentz B [記mega]	Instr. Gauss B [記mega]	Crystallite Size [魔	Micro Strain [%]	Crystallite Size only [魔	Micro Strain only [%]
1	Cr2O3 0 0 6	19,7698(5)	0,678(1)	1380,19	70,09	 	1748(4)	0,265(4)	Included	0,789519	 	 	0,234591	0,630337	0,075197	0,063701	562,129500	1,570262	122,359700	1,833570

Note: README.md
# Methods
## RSM analysis

Check out [doc](documentation/RSM.md)

File: scan_omega_4deg_step_0.005deg0_C4_3.xy
17.80590 81.0
17.82090 74.0
17.83590 75.0
17.85090 52.0
17.86590 74.0
17.88090 70.0
17.89590 65.0
17.91090 80.0
17.92590 81.0
17.94090 74.0
17.95590 75.0
17.97090 60.0
17.98590 84.0
18.00090 60.0
18.01590 85.0
18.03090 75.0
18.04590 63.0
18.06090 76.0
18.07590 55.0
18.09090 76.0
18.10590 60.0
18.12090 81.0
18.13590 76.0
18.15090 65.0
18.16590 89.0
18.18090 93.0
18.19590 78.0
18.21090 92.0
18.22590 90.0
18.24090 70.0
18.25590 91.0
18.27090 90.0
18.28590 89.0
18.30090 83.0
18.31590 84.0
18.33090 80.0
18.34590 100.0
18.36090 96.0
18.37590 72.0
18.39090 83.0
18.40590 98.0
18.42090 79.0
18.43590 83.0
18.45090 82.0
18.46590 73.0
18.48090 92.0
18.49590 117.0
18.51090 97.0
18.52590 97.0
18.54090 98.0
18.55590 93.0
18.57090 107.0
18.58590 102.0
18.60090 114.0
18.61590 104.0
18.63090 103.0
18.64590 114.0
18.66090 127.0
18.67590 112.0
18.69090 125.0
18.70590 132.0
18.72090 152.0
18.73590 130.0
18.75090 124.0
18.76590 124.0
18.78090 123.0
18.79590 149.0
18.81090 153.0
18.82590 156.0
18.84090 170.0
18.85590 190.0
18.87090 152.0
18.88590 155.0
18.90090 184.0
18.91590 200.0
18.93090 203.0
18.94590 226.0
18.96090 234.0
18.97590 244.0
18.99090 258.0
19.00590 261.0
19.02090 265.0
19.03590 273.0
19.05090 279.0
19.06590 322.0
19.08090 310.0
19.09590 347.0
19.11090 377.0
19.12590 361.0
19.14090 423.0
19.15590 423.0
19.17090 415.0
19.18590 436.0
19.20090 530.0
19.21590 559.0
19.23090 566.0
19.24590 558.0
19.26090 651.0
19.27590 692.0
19.29090 729.0
19.30590 711.0
19.32090 768.0
19.33590 897.0
19.35090 930.0
19.36590 919.0
19.38090 1003.0
19.39590 1073.0
19.41090 1086.0
19.42590 1207.0
19.44090 1243.0
19.45590 1362.0
19.47090 1429.0
19.48590 1492.0
19.50090 1589.0
19.51590 1638.0
19.53090 1743.0
19.54590 1879.0
19.56090 1895.0
19.57590 1974.0
19.59090 2136.0
19.60590 2157.0
19.62090 2185.0
19.63590 2356.0
19.65090 2396.0
19.66590 2388.0
19.68090 2523.0
19.69590 2641.0
19.71090 2743.0
19.72590 2710.0
19.74090 2732.0
19.75590 2871.0
19.77090 2868.0
19.78590 2908.0
19.80090 2838.0
19.81590 2803.0
19.83090 2830.0
19.84590 2744.0
19.86090 2675.0
19.87590 2700.0
19.89090 2599.0
19.90590 2595.0
19.92090 2483.0
19.93590 2353.0
19.95090 2317.0
19.96590 2156.0
19.98090 2084.0
19.99590 1990.0
20.01090 1915.0
20.02590 1872.0
20.04090 1809.0
20.05590 1647.0
20.07090 1572.0
20.08590 1497.0
20.10090 1448.0
20.11590 1264.0
20.13090 1274.0
20.14590 1217.0
20.16090 1102.0
20.17590 1148.0
20.19090 1010.0
20.20590 933.0
20.22090 848.0
20.23590 867.0
20.25090 792.0
20.26590 761.0
20.28090 631.0
20.29590 644.0
20.31090 595.0
20.32590 534.0
20.34090 596.0
20.35590 489.0
20.37090 497.0
20.38590 459.0
20.40090 430.0
20.41590 393.0
20.43090 373.0
20.44590 342.0
20.46090 349.0
20.47590 319.0
20.49090 322.0
20.50590 316.0
20.52090 266.0
20.53590 288.0
20.55090 247.0
20.56590 260.0
20.58090 219.0
20.59590 212.0
20.61090 206.0
20.62590 221.0
20.64090 194.0
20.65590 198.0
20.67090 194.0
20.68590 164.0
20.70090 190.0
20.71590 177.0
20.73090 146.0
20.74590 161.0
20.76090 156.0
20.77590 125.0
20.79090 135.0
20.80590 138.0
20.82090 113.0
20.83590 121.0
20.85090 120.0
20.86590 128.0
20.88090 116.0
20.89590 81.0
20.91090 101.0
20.92590 110.0
20.94090 102.0
20.95590 117.0
20.97090 93.0
20.98590 94.0
21.00090 95.0
21.01590 100.0
21.03090 105.0
21.04590 86.0
21.06090 86.0
21.07590 93.0
21.09090 61.0
21.10590 89.0
21.12090 104.0
21.13590 93.0
21.15090 75.0
21.16590 77.0
21.18090 74.0
21.19590 74.0
21.21090 74.0
21.22590 72.0
21.24090 89.0
21.25590 72.0
21.27090 61.0
21.28590 66.0
21.30090 79.0
21.31590 82.0
21.33090 64.0
21.34590 68.0
21.36090 72.0
21.37590 83.0
21.39090 58.0
21.40590 72.0
21.42090 76.0
21.43590 76.0
21.45090 59.0
21.46590 67.0
21.48090 58.0
21.49590 69.0
21.51090 58.0
21.52590 70.0
21.54090 62.0
21.55590 58.0
21.57090 70.0
21.58590 75.0
21.60090 72.0
21.61590 65.0
21.63090 61.0
21.64590 59.0
21.66090 68.0
21.67590 66.0
21.69090 63.0
21.70590 71.0
21.72090 55.0
21.73590 60.0
21.75090 76.0
21.76590 59.0