Folder: DataAnalysis/data/W6780c/XRD_Omega

Note: data/W6780c/XRD_Omega/W6780c_omega_peaks.TXT
No.	Label	Pos. [記mega]	FWHM Left [記mega]	Area [cts*記mega]	Backgr.[cts]	d-spacing [魔	Height [cts]	Shape Left	Status	Integral Breadth [記mega]	FWHM Right [記mega]	Shape Right	Obs. Lorentz B [記mega]	Obs. Gauss B [記mega]	Instr. Lorentz B [記mega]	Instr. Gauss B [記mega]	Crystallite Size [魔	Micro Strain [%]	Crystallite Size only [魔	Micro Strain only [%]
1	Cr2O3 0 0 6	19,7008(3)	0,595(7)	5071,37	643,65	 	6558(132)	0,56(3)	Included	0,773262	 	 	0,463457	0,441445	0,075206	0,063709	230,754300	1,097700	125,209200	1,798056

Note: README.md
# Methods
## RSM analysis

Check out [doc](documentation/RSM.md)

File: W6780c_Cr2O3_scan_omega_2deg_step_0.002deg0_11.xy
18.72030 752.0
18.72830 802.0
18.73630 768.0
18.74430 786.0
18.75230 844.0
18.76030 756.0
18.76830 877.0
18.77630 820.0
18.78430 814.0
18.79230 821.0
18.80030 874.0
18.80830 870.0
18.81630 768.0
18.82430 867.0
18.83230 958.0
18.84030 913.0
18.84830 853.0
18.85630 936.0
18.86430 893.0
18.87230 969.0
18.88030 973.0
18.88830 1001.0
18.89630 1004.0
18.90430 1042.0
18.91230 1024.0
18.92030 1048.0
18.92830 1066.0
18.93630 1064.0
18.94430 1120.0
18.95230 1156.0
18.96030 1058.0
18.96830 1163.0
18.97630 1216.0
18.98430 1217.0
18.99230 1250.0
19.00030 1251.0
19.00830 1239.0
19.01630 1231.0
19.02430 1324.0
19.03230 1333.0
19.04030 1444.0
19.04830 1430.0
19.05630 1401.0
19.06430 1513.0
19.07230 1502.0
19.08030 1549.0
19.08830 1591.0
19.09630 1690.0
19.10430 1669.0
19.11230 1684.0
19.12030 1747.0
19.12830 1734.0
19.13630 1847.0
19.14430 1851.0
19.15230 1921.0
19.16030 2013.0
19.16830 2017.0
19.17630 2104.0
19.18430 2127.0
19.19230 2262.0
19.20030 2353.0
19.20830 2350.0
19.21630 2466.0
19.22430 2583.0
19.23230 2563.0
19.24030 2594.0
19.24830 2774.0
19.25630 2883.0
19.26430 2936.0
19.27230 3083.0
19.28030 3165.0
19.28830 3326.0
19.29630 3362.0
19.30430 3356.0
19.31230 3526.0
19.32030 3803.0
19.32830 3900.0
19.33630 3995.0
19.34430 4082.0
19.35230 4253.0
19.36030 4326.0
19.36830 4454.0
19.37630 4658.0
19.38430 4904.0
19.39230 5112.0
19.40030 5187.0
19.40830 5401.0
19.41630 5529.0
19.42430 5585.0
19.43230 5837.0
19.44030 5962.0
19.44830 6353.0
19.45630 6443.0
19.46430 6482.0
19.47230 6823.0
19.48030 6909.0
19.48830 6960.0
19.49630 7355.0
19.50430 7416.0
19.51230 7564.0
19.52030 7817.0
19.52830 7952.0
19.53630 7844.0
19.54430 8085.0
19.55230 8435.0
19.56030 8550.0
19.56830 8543.0
19.57630 8822.0
19.58430 9085.0
19.59230 9125.0
19.60030 9279.0
19.60830 9359.0
19.61630 9635.0
19.62430 9721.0
19.63230 9887.0
19.64030 9836.0
19.64830 9927.0
19.65630 9939.0
19.66430 10168.0
19.67230 10212.0
19.68030 10272.0
19.68830 10329.0
19.69630 10301.0
19.70430 10476.0
19.71230 10257.0
19.72030 10501.0
19.72830 10500.0
19.73630 10414.0
19.74430 10262.0
19.75230 10513.0
19.76030 10213.0
19.76830 10333.0
19.77630 10093.0
19.78430 9963.0
19.79230 10019.0
19.80030 9781.0
19.80830 9676.0
19.81630 9658.0
19.82430 9629.0
19.83230 9323.0
19.84030 9286.0
19.84830 9131.0
19.85630 8943.0
19.86430 8768.0
19.87230 8489.0
19.88030 8361.0
19.88830 8240.0
19.89630 8122.0
19.90430 7862.0
19.91230 7586.0
19.92030 7694.0
19.92830 7437.0
19.93630 7245.0
19.94430 7160.0
19.95230 6909.0
19.96030 6754.0
19.96830 6541.0
19.97630 6431.0
19.98430 6098.0
19.99230 6031.0
20.00030 5854.0
20.00830 5504.0
20.01630 5583.0
20.02430 5352.0
20.03230 5365.0
20.04030 5031.0
20.04830 4867.0
20.05630 4772.0
20.06430 4564.0
20.07230 4446.0
20.08030 4356.0
20.08830 4229.0
20.09630 4175.0
20.10430 3934.0
20.11230 3816.0
20.12030 3719.0
20.12830 3636.0
20.13630 3596.0
20.14430 3442.0
20.15230 3383.0
20.16030 3114.0
20.16830 3055.0
20.17630 3107.0
20.18430 2910.0
20.19230 2801.0
20.20030 2800.0
20.20830 2635.0
20.21630 2677.0
20.22430 2597.0
20.23230 2500.0
20.24030 2368.0
20.24830 2417.0
20.25630 2268.0
20.26430 2225.0
20.27230 2225.0
20.28030 2111.0
20.28830 2070.0
20.29630 2045.0
20.30430 1962.0
20.31230 1982.0
20.32030 1889.0
20.32830 1890.0
20.33630 1882.0
20.34430 1744.0
20.35230 1600.0
20.36030 1619.0
20.36830 1471.0
20.37630 1459.0
20.38430 1406.0
20.39230 1439.0
20.40030 1398.0
20.40830 1371.0
20.41630 1314.0
20.42430 1171.0
20.43230 1196.0
20.44030 1270.0
20.44830 1202.0
20.45630 1140.0
20.46430 1203.0
20.47230 1100.0
20.48030 1126.0
20.48830 1126.0
20.49630 1113.0
20.50430 1073.0
20.51230 1019.0
20.52030 1075.0
20.52830 1038.0
20.53630 997.0
20.54430 1010.0
20.55230 986.0
20.56030 979.0
20.56830 962.0
20.57630 935.0
20.58430 914.0
20.59230 930.0
20.60030 944.0
20.60830 903.0
20.61630 887.0
20.62430 854.0
20.63230 840.0
20.64030 843.0
20.64830 847.0
20.65630 754.0
20.66430 743.0
20.67230 804.0
20.68030 792.0
20.68830 787.0
20.69630 774.0
20.70430 756.0