Folder: DataAnalysis/data/W6775c/XRD_Omega

Note: data/W6775c/XRD_Omega/W6775c_omega_peaks.TXT
No.	Label	Pos. [記mega]	FWHM Left [記mega]	Area [cts*記mega]	Backgr.[cts]	d-spacing [魔	Height [cts]	Shape Left	Status	Integral Breadth [記mega]	FWHM Right [記mega]	Shape Right	Obs. Lorentz B [記mega]	Obs. Gauss B [記mega]	Instr. Lorentz B [記mega]	Instr. Gauss B [記mega]	Crystallite Size [魔	Micro Strain [%]	Crystallite Size only [魔	Micro Strain only [%]
1	Cr2O3 0 0 6	19,65658(4)	0,0720(2)	2934,67	645,72	 	25946(53)	1,000(4)	Included	0,113105	 	 	0,112575	0,001910	0,075212	0,063714	2397,726000	-0,160402	2380,770000	0,094774

Note: README.md
# Methods
## RSM analysis

Check out [doc](documentation/RSM.md)

File: W6775c_Cr2O3_scan_omega_2deg_step_0.002deg0_6.xy
18.67650 570.0
18.68450 580.0
18.69250 569.0
18.70050 498.0
18.70850 573.0
18.71650 558.0
18.72450 569.0
18.73250 551.0
18.74050 545.0
18.74850 583.0
18.75650 558.0
18.76450 556.0
18.77250 518.0
18.78050 558.0
18.78850 543.0
18.79650 560.0
18.80450 579.0
18.81250 554.0
18.82050 572.0
18.82850 570.0
18.83650 562.0
18.84450 571.0
18.85250 572.0
18.86050 561.0
18.86850 572.0
18.87650 573.0
18.88450 579.0
18.89250 555.0
18.90050 559.0
18.90850 592.0
18.91650 580.0
18.92450 554.0
18.93250 638.0
18.94050 604.0
18.94850 598.0
18.95650 561.0
18.96450 612.0
18.97250 598.0
18.98050 590.0
18.98850 584.0
18.99650 576.0
19.00450 631.0
19.01250 640.0
19.02050 626.0
19.02850 554.0
19.03650 609.0
19.04450 647.0
19.05250 633.0
19.06050 648.0
19.06850 669.0
19.07650 676.0
19.08450 681.0
19.09250 682.0
19.10050 660.0
19.10850 710.0
19.11650 725.0
19.12450 714.0
19.13250 757.0
19.14050 736.0
19.14850 741.0
19.15650 761.0
19.16450 801.0
19.17250 785.0
19.18050 797.0
19.18850 808.0
19.19650 779.0
19.20450 811.0
19.21250 877.0
19.22050 879.0
19.22850 899.0
19.23650 884.0
19.24450 918.0
19.25250 904.0
19.26050 928.0
19.26850 929.0
19.27650 964.0
19.28450 945.0
19.29250 1044.0
19.30050 989.0
19.30850 1048.0
19.31650 1059.0
19.32450 1066.0
19.33250 1164.0
19.34050 1138.0
19.34850 1173.0
19.35650 1163.0
19.36450 1226.0
19.37250 1331.0
19.38050 1335.0
19.38850 1354.0
19.39650 1424.0
19.40450 1466.0
19.41250 1417.0
19.42050 1557.0
19.42850 1580.0
19.43650 1695.0
19.44450 1753.0
19.45250 1748.0
19.46050 1969.0
19.46850 2071.0
19.47650 2125.0
19.48450 2199.0
19.49250 2401.0
19.50050 2591.0
19.50850 2647.0
19.51650 2872.0
19.52450 3198.0
19.53250 3432.0
19.54050 3691.0
19.54850 3983.0
19.55650 4484.0
19.56450 5111.0
19.57250 5528.0
19.58050 6234.0
19.58850 7081.0
19.59650 8161.0
19.60450 9560.0
19.61250 11792.0
19.62050 14712.0
19.62850 18512.0
19.63650 23803.0
19.64450 28885.0
19.65250 32060.0
19.66050 32060.0
19.66850 30151.0
19.67650 27026.0
19.68450 25002.0
19.69250 24243.0
19.70050 23276.0
19.70850 22075.0
19.71650 20016.0
19.72450 16885.0
19.73250 13589.0
19.74050 11131.0
19.74850 9285.0
19.75650 8054.0
19.76450 6984.0
19.77250 6071.0
19.78050 5299.0
19.78850 4936.0
19.79650 4359.0
19.80450 4032.0
19.81250 3699.0
19.82050 3332.0
19.82850 3054.0
19.83650 2736.0
19.84450 2498.0
19.85250 2423.0
19.86050 2270.0
19.86850 2147.0
19.87650 1936.0
19.88450 1912.0
19.89250 1833.0
19.90050 1670.0
19.90850 1682.0
19.91650 1579.0
19.92450 1478.0
19.93250 1427.0
19.94050 1419.0
19.94850 1329.0
19.95650 1311.0
19.96450 1220.0
19.97250 1179.0
19.98050 1233.0
19.98850 1186.0
19.99650 1105.0
20.00450 1045.0
20.01250 1019.0
20.02050 1042.0
20.02850 1024.0
20.03650 1024.0
20.04450 966.0
20.05250 961.0
20.06050 958.0
20.06850 908.0
20.07650 870.0
20.08450 859.0
20.09250 918.0
20.10050 819.0
20.10850 849.0
20.11650 836.0
20.12450 830.0
20.13250 780.0
20.14050 768.0
20.14850 804.0
20.15650 786.0
20.16450 782.0
20.17250 753.0
20.18050 750.0
20.18850 680.0
20.19650 745.0
20.20450 738.0
20.21250 711.0
20.22050 722.0
20.22850 747.0
20.23650 760.0
20.24450 744.0
20.25250 724.0
20.26050 738.0
20.26850 745.0
20.27650 706.0
20.28450 731.0
20.29250 732.0
20.30050 726.0
20.30850 711.0
20.31650 684.0
20.32450 668.0
20.33250 646.0
20.34050 622.0
20.34850 589.0
20.35650 558.0
20.36450 539.0
20.37250 528.0
20.38050 591.0
20.38850 584.0
20.39650 565.0
20.40450 536.0
20.41250 516.0
20.42050 537.0
20.42850 498.0
20.43650 525.0
20.44450 539.0
20.45250 489.0
20.46050 570.0
20.46850 500.0
20.47650 554.0
20.48450 539.0
20.49250 507.0
20.50050 544.0
20.50850 533.0
20.51650 547.0
20.52450 488.0
20.53250 535.0
20.54050 548.0
20.54850 524.0
20.55650 550.0
20.56450 467.0
20.57250 470.0
20.58050 515.0
20.58850 511.0
20.59650 530.0
20.60450 505.0
20.61250 476.0
20.62050 516.0
20.62850 529.0
20.63650 470.0
20.64450 489.0
20.65250 527.0
20.66050 485.0