Folder: DataAnalysis/data/W6855a/XRD_2ThetaOmega

Note: data/W6855a/XRD_2ThetaOmega/W6855a_peaks.TXT
No.	Label	Pos. [°2Th.]	FWHM Left [°2Th.]	Area [cts*°2Th.]	Backgr.[cts]	d-spacing [Å]	Height [cts]	Shape Left	Status	Integral Breadth [°2Th.]	FWHM Right [°2Th.]	Shape Right	Obs. Lorentz B [°2Th.]	Obs. Gauss B [°2Th.]	Instr. Lorentz B [°2Th.]	Instr. Gauss B [°2Th.]	Crystallite Size [Å]	Micro Strain [%]	Crystallite Size only [Å]	Micro Strain only [%]
1	Cr2O3 1 1 0	35,4442(4)	0,188(1)	342,75	29,03	2,53054	1478(8)	0,431(8)	Included	0,231905	 	 	0,108989	0,155856	0,073961	0,062657	2645,538000	0,194851	558,964800	0,226360
2	Al2O3 1 1 0	37,69825(4)	0,04905(8)	2183,40	30,03	2,38426	37165(66)	0,345(2)	Included	0,058749	 	 	0,022448	0,043310	0,073930	0,062631	-1811,713000	-0,057826	29491,790000	0,004042
3	Cr2O3 2 2 0	75,141(4)	0,42(2)	36,03	11,87	1,26332	60(2)	0,82(6)	Included	0,604023	 	 	0,510321	0,204339	0,081248	0,068831	259,553300	0,109126	210,507100	0,300067
4	Al2O3 2 2 0	80,63574(8)	0,0654(2)	710,07	17,70	1,19052	8449(29)	0,531(5)	Included	0,084038	 	 	0,047960	0,049920	0,084069	0,071219	-3206,034000	-0,026118	36605,180000	0,001626

Note: README.md
# Methods
## RSM analysis

Check out [doc](documentation/RSM.md)

File: W6855a_absolute_2th-om_10-130deg_PIXscan_17min_12.xy
10.0035 26.0
10.4072 16.0
10.811 20.0
11.2147 17.0
11.6185 29.0
12.0222 15.0
12.426 16.0
12.8298 23.0
13.2335 25.0
13.6373 16.0
14.041 21.0
14.4448 17.0
14.8485 10.0
15.2523 16.0
15.656 15.0
16.0598 23.0
16.4636 17.0
16.8673 27.0
17.2711 20.0
17.6748 14.0
18.0786 14.0
18.4823 14.0
18.8861 18.0
19.2899 16.0
19.6936 20.0
20.0974 15.0
20.5011 11.0
20.9049 8.0
21.3086 22.0
21.7124 13.0
22.1161 16.0
22.5199 14.0
22.9237 15.0
23.3274 9.0
23.7312 10.0
24.1349 12.0
24.5387 21.0
24.9424 14.0
25.3462 18.0
25.75 11.0
26.1537 14.0
26.5575 8.0
26.9612 10.0
27.365 11.0
27.7687 8.0
28.1725 13.0
28.5762 9.0
28.98 7.0
29.3838 7.0
29.7875 9.0
30.1913 10.0
30.595 14.0
30.9988 8.0
31.4025 14.0
31.8063 12.0
32.2101 7.0
32.6138 9.0
33.0176 10.0
33.4213 9.0
33.8251 11.0
34.2288 26.0
34.6326 26.0
35.0363 41.0
35.4401 1959.0
35.8439 118.0
36.2476 40.0
36.6514 24.0
37.0551 36.0
37.4589 143.0
37.8626 1029.0
38.2664 130.0
38.6702 52.0
39.0739 24.0
39.4777 17.0
39.8814 17.0
40.2852 16.0
40.6889 17.0
41.0927 10.0
41.4964 13.0
41.9002 18.0
42.304 13.0
42.7077 11.0
43.1115 10.0
43.5152 11.0
43.919 7.0
44.3227 27.0
44.7265 18.0
45.1303 11.0
45.534 11.0
45.9378 8.0
46.3415 11.0
46.7453 9.0
47.149 14.0
47.5528 6.0
47.9565 10.0
48.3603 9.0
48.7641 16.0
49.1678 10.0
49.5716 13.0
49.9753 7.0
50.3791 10.0
50.7828 11.0
51.1866 10.0
51.5903 8.0
51.9941 9.0
52.3979 15.0
52.8016 7.0
53.2054 15.0
53.6091 12.0
54.0129 14.0
54.4166 13.0
54.8204 13.0
55.2242 11.0
55.6279 23.0
56.0317 9.0
56.4354 9.0
56.8392 12.0
57.2429 7.0
57.6467 9.0
58.0504 12.0
58.4542 11.0
58.858 15.0
59.2617 11.0
59.6655 12.0
60.0692 18.0
60.473 10.0
60.8767 8.0
61.2805 9.0
61.6843 11.0
62.088 11.0
62.4918 14.0
62.8955 10.0
63.2993 4.0
63.703 10.0
64.1068 15.0
64.5105 15.0
64.9143 11.0
65.3181 9.0
65.7218 13.0
66.1256 15.0
66.5293 8.0
66.9331 4.0
67.3368 9.0
67.7406 14.0
68.1444 15.0
68.5481 15.0
68.9519 11.0
69.3556 9.0
69.7594 11.0
70.1631 9.0
70.5669 15.0
70.9706 12.0
71.3744 7.0
71.7782 11.0
72.1819 5.0
72.5857 10.0
72.9894 13.0
73.3932 11.0
73.7969 13.0
74.2007 11.0
74.6045 18.0
75.0082 73.0
75.412 66.0
75.8157 32.0
76.2195 31.0
76.6232 42.0
77.027 12.0
77.4307 20.0
77.8345 18.0
78.2383 10.0
78.642 11.0
79.0458 11.0
79.4495 19.0
79.8533 36.0
80.257 56.0
80.6608 5381.0
81.0646 98.0
81.4683 36.0
81.8721 21.0
82.2758 32.0
82.6796 27.0
83.0833 12.0
83.4871 18.0
83.8908 14.0
84.2946 13.0
84.6984 17.0
85.1021 7.0
85.5059 8.0
85.9096 9.0
86.3134 17.0
86.7171 10.0
87.1209 14.0
87.5247 8.0
87.9284 11.0
88.3322 11.0
88.7359 16.0
89.1397 14.0
89.5434 11.0
89.9472 15.0
90.3509 13.0
90.7547 17.0
91.1585 12.0
91.5622 12.0
91.966 15.0
92.3697 17.0
92.7735 13.0
93.1772 14.0
93.581 18.0
93.9848 14.0
94.3885 11.0
94.7923 15.0
95.196 15.0
95.5998 10.0
96.0035 11.0
96.4073 16.0
96.811 7.0
97.2148 8.0
97.6186 9.0
98.0223 14.0
98.4261 16.0
98.8298 17.0
99.2336 14.0
99.6373 8.0
100.041 17.0
100.445 8.0
100.849 9.0
101.252 13.0
101.656 12.0
102.06 18.0
102.464 10.0
102.867 12.0
103.271 12.0
103.675 16.0
104.079 9.0
104.482 17.0
104.886 21.0
105.29 13.0
105.694 14.0
106.097 8.0
106.501 15.0
106.905 13.0
107.309 17.0
107.712 18.0
108.116 11.0
108.52 14.0
108.924 19.0
109.327 10.0
109.731 14.0
110.135 10.0
110.539 12.0
110.943 7.0
111.346 11.0
111.75 10.0
112.154 8.0
112.558 13.0
112.961 12.0
113.365 20.0
113.769 14.0
114.173 19.0
114.576 15.0
114.98 11.0
115.384 11.0
115.788 11.0
116.191 10.0
116.595 14.0
116.999 9.0
117.403 20.0
117.806 15.0
118.21 6.0
118.614 16.0
119.018 14.0
119.421 9.0
119.825 17.0
120.229 20.0
120.633 14.0
121.036 16.0
121.44 13.0
121.844 11.0
122.248 19.0
122.651 24.0
123.055 9.0
123.459 14.0
123.863 11.0
124.266 13.0
124.67 9.0
125.074 20.0
125.478 10.0
125.881 5.0
126.285 10.0
126.689 12.0
127.093 20.0
127.497 10.0
127.9 8.0
128.304 20.0
128.708 12.0
129.112 15.0
129.515 17.0
129.919 18.0
129.998 18.0