Folder: DataAnalysis/data/W6777c/XRD_Omega

Note: data/W6777c/XRD_Omega/W6777c_omega_peaks.TXT
No.	Label	Pos. [記mega]	FWHM Left [記mega]	Area [cts*記mega]	Backgr.[cts]	d-spacing [魔	Height [cts]	Shape Left	Status	Integral Breadth [記mega]	FWHM Right [記mega]	Shape Right	Obs. Lorentz B [記mega]	Obs. Gauss B [記mega]	Instr. Lorentz B [記mega]	Instr. Gauss B [記mega]	Crystallite Size [魔	Micro Strain [%]	Crystallite Size only [魔	Micro Strain only [%]
1	Cr2O3 0 0 6	19,7005(3)	0,64(1)	5171,62	529,99	 	6294(180)	0,54(4)	Included	0,821647	 	 	0,478026	0,480757	0,075207	0,063709	222,408600	1,197467	117,216100	1,920701

Note: README.md
# Methods
## RSM analysis

Check out [doc](documentation/RSM.md)

File: W6777c_Cr2O3_scan_omega_2deg_step_0.002deg0_8.xy
18.72960 730.0
18.73760 763.0
18.74560 789.0
18.75360 760.0
18.76160 759.0
18.76960 783.0
18.77760 804.0
18.78560 823.0
18.79360 801.0
18.80160 832.0
18.80960 848.0
18.81760 861.0
18.82560 865.0
18.83360 864.0
18.84160 853.0
18.84960 853.0
18.85760 905.0
18.86560 927.0
18.87360 945.0
18.88160 1000.0
18.88960 991.0
18.89760 952.0
18.90560 994.0
18.91360 971.0
18.92160 1063.0
18.92960 1078.0
18.93760 1055.0
18.94560 1121.0
18.95360 1095.0
18.96160 1202.0
18.96960 1168.0
18.97760 1183.0
18.98560 1211.0
18.99360 1208.0
19.00160 1268.0
19.00960 1324.0
19.01760 1346.0
19.02560 1394.0
19.03360 1430.0
19.04160 1448.0
19.04960 1413.0
19.05760 1419.0
19.06560 1532.0
19.07360 1611.0
19.08160 1657.0
19.08960 1691.0
19.09760 1706.0
19.10560 1760.0
19.11360 1814.0
19.12160 1849.0
19.12960 1974.0
19.13760 1984.0
19.14560 1987.0
19.15360 2037.0
19.16160 2151.0
19.16960 2230.0
19.17760 2402.0
19.18560 2426.0
19.19360 2346.0
19.20160 2450.0
19.20960 2591.0
19.21760 2626.0
19.22560 2777.0
19.23360 2791.0
19.24160 2874.0
19.24960 3035.0
19.25760 3020.0
19.26560 3245.0
19.27360 3297.0
19.28160 3290.0
19.28960 3416.0
19.29760 3724.0
19.30560 3708.0
19.31360 3901.0
19.32160 3943.0
19.32960 4099.0
19.33760 4162.0
19.34560 4349.0
19.35360 4448.0
19.36160 4633.0
19.36960 4732.0
19.37760 5016.0
19.38560 4980.0
19.39360 5189.0
19.40160 5308.0
19.40960 5276.0
19.41760 5510.0
19.42560 5650.0
19.43360 5961.0
19.44160 6092.0
19.44960 6180.0
19.45760 6292.0
19.46560 6460.0
19.47360 6754.0
19.48160 7013.0
19.48960 6922.0
19.49760 7387.0
19.50560 7429.0
19.51360 7428.0
19.52160 7568.0
19.52960 7925.0
19.53760 7966.0
19.54560 8207.0
19.55360 8371.0
19.56160 8351.0
19.56960 8553.0
19.57760 8727.0
19.58560 8664.0
19.59360 8985.0
19.60160 8810.0
19.60960 9082.0
19.61760 8972.0
19.62560 9393.0
19.63360 9309.0
19.64160 9676.0
19.64960 9618.0
19.65760 9824.0
19.66560 9755.0
19.67360 9795.0
19.68160 9940.0
19.68960 10040.0
19.69760 9779.0
19.70560 10066.0
19.71360 9804.0
19.72160 9823.0
19.72960 9947.0
19.73760 9909.0
19.74560 9766.0
19.75360 9658.0
19.76160 9709.0
19.76960 9656.0
19.77760 9636.0
19.78560 9628.0
19.79360 9483.0
19.80160 9469.0
19.80960 9464.0
19.81760 9143.0
19.82560 9179.0
19.83360 9151.0
19.84160 8906.0
19.84960 8841.0
19.85760 8566.0
19.86560 8564.0
19.87360 8366.0
19.88160 8338.0
19.88960 8111.0
19.89760 8018.0
19.90560 7535.0
19.91360 7668.0
19.92160 7483.0
19.92960 7394.0
19.93760 7088.0
19.94560 6938.0
19.95360 6814.0
19.96160 6540.0
19.96960 6492.0
19.97760 6463.0
19.98560 6108.0
19.99360 5994.0
20.00160 5861.0
20.00960 5691.0
20.01760 5353.0
20.02560 5442.0
20.03360 5281.0
20.04160 5107.0
20.04960 4917.0
20.05760 4802.0
20.06560 4541.0
20.07360 4549.0
20.08160 4336.0
20.08960 4306.0
20.09760 4162.0
20.10560 4007.0
20.11360 3886.0
20.12160 3698.0
20.12960 3493.0
20.13760 3462.0
20.14560 3453.0
20.15360 3262.0
20.16160 3239.0
20.16960 3142.0
20.17760 2987.0
20.18560 2985.0
20.19360 2820.0
20.20160 2770.0
20.20960 2598.0
20.21760 2713.0
20.22560 2563.0
20.23360 2470.0
20.24160 2419.0
20.24960 2311.0
20.25760 2320.0
20.26560 2240.0
20.27360 2155.0
20.28160 2142.0
20.28960 2054.0
20.29760 2097.0
20.30560 1908.0
20.31360 1905.0
20.32160 1785.0
20.32960 1835.0
20.33760 1797.0
20.34560 1805.0
20.35360 1679.0
20.36160 1591.0
20.36960 1506.0
20.37760 1501.0
20.38560 1388.0
20.39360 1367.0
20.40160 1338.0
20.40960 1250.0
20.41760 1329.0
20.42560 1220.0
20.43360 1141.0
20.44160 1173.0
20.44960 1222.0
20.45760 1124.0
20.46560 1087.0
20.47360 1055.0
20.48160 1071.0
20.48960 987.0
20.49760 1038.0
20.50560 994.0
20.51360 991.0
20.52160 990.0
20.52960 898.0
20.53760 946.0
20.54560 919.0
20.55360 911.0
20.56160 883.0
20.56960 839.0
20.57760 803.0
20.58560 834.0
20.59360 813.0
20.60160 798.0
20.60960 819.0
20.61760 742.0
20.62560 725.0
20.63360 717.0
20.64160 709.0
20.64960 686.0
20.65760 712.0
20.66560 743.0
20.67360 694.0
20.68160 691.0
20.68960 679.0
20.69760 686.0
20.70560 657.0
20.71360 620.0