Folder: DataAnalysis/data/W6777c/XRD_2ThetaOmega

Note: data/W6777c/XRD_2ThetaOmega/W6777c_peaks.TXT
No.	Label	Pos. [°2Th.]	FWHM Left [°2Th.]	Area calc.	Assignment	h	k	l	Multiplicity	F obs.	F calc.	Area [cts*°2Th.]	Derivation	Backgr.[cts]	d-spacing [Å]	Height [cts]	K-A2 / K-A1 Ratio	Matched	Matched by	Rel. Int. [%]	Source	Status	Integral Breadth [°2Th.]
1	Cr2O3 0 0 6	39,3450(7)	0,345(2)	0,00	 	0	0	6	 	0,000000	0,000000	246,79	Pure KA1	15,14	2,28818	579(4)	0,500	False	 	5,62	Profile fitting	Included	0,426154
2	Al2O3 0 0 6	41,60612(8)	0,0518(2)	0,00	 	0	0	6	 	0,000000	0,000000	481,51	Pure KA1	17,50	2,16890	7915(29)	0,500	False	 	76,85	Profile fitting	Included	0,060837
3	Cr2O3 0 0 12	84,771(4)	0,88(1)	0,00	 	0	0	12	 	0,000000	0,000000	97,00	Pure KA1	14,64	1,14268	86(1)	0,500	False	 	0,84	Profile fitting	Included	1,124478
4	Al2O3 0 0 12	90,67045(8)	0,07168(2)	0,00	 	0	0	12	 	0,000000	0,000000	969,63	Pure KA1	20,59	1,08305	10299(22)	0,500	False	 	100,00	Profile fitting	Included	0,094145

Note: README.md
# Methods
## RSM analysis

Check out [doc](documentation/RSM.md)

File: W6777c_absolute_2th-om_10-130deg_PIXscan_17min_5.xy
10.0035 37.0
10.4072 29.0
10.811 29.0
11.2147 27.0
11.6185 31.0
12.0222 42.0
12.426 26.0
12.8298 22.0
13.2335 22.0
13.6373 28.0
14.041 23.0
14.4448 40.0
14.8485 24.0
15.2523 24.0
15.656 24.0
16.0598 31.0
16.4636 13.0
16.8673 18.0
17.2711 15.0
17.6748 17.0
18.0786 29.0
18.4823 15.0
18.8861 19.0
19.2899 21.0
19.6936 22.0
20.0974 18.0
20.5011 34.0
20.9049 15.0
21.3086 15.0
21.7124 19.0
22.1161 21.0
22.5199 22.0
22.9237 18.0
23.3274 23.0
23.7312 21.0
24.1349 17.0
24.5387 16.0
24.9424 27.0
25.3462 11.0
25.75 15.0
26.1537 17.0
26.5575 20.0
26.9612 15.0
27.365 18.0
27.7687 23.0
28.1725 8.0
28.5762 20.0
28.98 13.0
29.3838 12.0
29.7875 12.0
30.1913 21.0
30.595 18.0
30.9988 15.0
31.4025 20.0
31.8063 15.0
32.2101 14.0
32.6138 16.0
33.0176 16.0
33.4213 11.0
33.8251 11.0
34.2288 14.0
34.6326 15.0
35.0363 12.0
35.4401 15.0
35.8439 11.0
36.2476 8.0
36.6514 22.0
37.0551 13.0
37.4589 28.0
37.8626 17.0
38.2664 27.0
38.6702 28.0
39.0739 173.0
39.4777 702.0
39.8814 44.0
40.2852 21.0
40.6889 20.0
41.0927 24.0
41.4964 111.0
41.9002 54.0
42.304 28.0
42.7077 12.0
43.1115 14.0
43.5152 15.0
43.919 32.0
44.3227 25.0
44.7265 20.0
45.1303 14.0
45.534 15.0
45.9378 19.0
46.3415 15.0
46.7453 12.0
47.149 13.0
47.5528 11.0
47.9565 26.0
48.3603 11.0
48.7641 17.0
49.1678 8.0
49.5716 12.0
49.9753 9.0
50.3791 9.0
50.7828 9.0
51.1866 14.0
51.5903 10.0
51.9941 7.0
52.3979 10.0
52.8016 10.0
53.2054 9.0
53.6091 16.0
54.0129 18.0
54.4166 20.0
54.8204 8.0
55.2242 14.0
55.6279 13.0
56.0317 9.0
56.4354 20.0
56.8392 9.0
57.2429 12.0
57.6467 20.0
58.0504 11.0
58.4542 16.0
58.858 16.0
59.2617 14.0
59.6655 14.0
60.0692 19.0
60.473 17.0
60.8767 11.0
61.2805 14.0
61.6843 18.0
62.088 18.0
62.4918 8.0
62.8955 13.0
63.2993 15.0
63.703 10.0
64.1068 13.0
64.5105 14.0
64.9143 23.0
65.3181 13.0
65.7218 9.0
66.1256 8.0
66.5293 21.0
66.9331 18.0
67.3368 7.0
67.7406 11.0
68.1444 13.0
68.5481 10.0
68.9519 9.0
69.3556 18.0
69.7594 15.0
70.1631 15.0
70.5669 19.0
70.9706 21.0
71.3744 19.0
71.7782 14.0
72.1819 12.0
72.5857 17.0
72.9894 10.0
73.3932 13.0
73.7969 16.0
74.2007 16.0
74.6045 14.0
75.0082 8.0
75.412 13.0
75.8157 13.0
76.2195 8.0
76.6232 12.0
77.027 17.0
77.4307 9.0
77.8345 11.0
78.2383 14.0
78.642 15.0
79.0458 22.0
79.4495 17.0
79.8533 19.0
80.257 15.0
80.6608 19.0
81.0646 16.0
81.4683 17.0
81.8721 12.0
82.2758 20.0
82.6796 18.0
83.0833 17.0
83.4871 21.0
83.8908 21.0
84.2946 53.0
84.6984 104.0
85.1021 117.0
85.5059 48.0
85.9096 51.0
86.3134 11.0
86.7171 18.0
87.1209 20.0
87.5247 22.0
87.9284 26.0
88.3322 17.0
88.7359 13.0
89.1397 27.0
89.5434 20.0
89.9472 34.0
90.3509 83.0
90.7547 1042.0
91.1585 134.0
91.5622 32.0
91.966 30.0
92.3697 21.0
92.7735 24.0
93.1772 19.0
93.581 18.0
93.9848 18.0
94.3885 12.0
94.7923 23.0
95.196 16.0
95.5998 14.0
96.0035 14.0
96.4073 15.0
96.811 21.0
97.2148 16.0
97.6186 18.0
98.0223 17.0
98.4261 16.0
98.8298 13.0
99.2336 17.0
99.6373 14.0
100.041 13.0
100.445 12.0
100.849 11.0
101.252 7.0
101.656 10.0
102.06 10.0
102.464 20.0
102.867 9.0
103.271 15.0
103.675 15.0
104.079 16.0
104.482 13.0
104.886 20.0
105.29 18.0
105.694 12.0
106.097 18.0
106.501 13.0
106.905 12.0
107.309 14.0
107.712 10.0
108.116 18.0
108.52 7.0
108.924 13.0
109.327 9.0
109.731 17.0
110.135 20.0
110.539 22.0
110.943 15.0
111.346 18.0
111.75 12.0
112.154 17.0
112.558 15.0
112.961 7.0
113.365 16.0
113.769 18.0
114.173 19.0
114.576 13.0
114.98 17.0
115.384 12.0
115.788 14.0
116.191 13.0
116.595 19.0
116.999 13.0
117.403 12.0
117.806 11.0
118.21 17.0
118.614 12.0
119.018 20.0
119.421 19.0
119.825 20.0
120.229 14.0
120.633 8.0
121.036 17.0
121.44 16.0
121.844 14.0
122.248 16.0
122.651 19.0
123.055 18.0
123.459 14.0
123.863 21.0
124.266 9.0
124.67 8.0
125.074 20.0
125.478 23.0
125.881 15.0
126.285 16.0
126.689 18.0
127.093 14.0
127.497 14.0
127.9 14.0
128.304 14.0
128.708 15.0
129.112 21.0
129.515 23.0
129.919 17.0
129.998 11.0