Folder: DataAnalysis/data/W6776a/XRD_2ThetaOmega

Note: data/W6776a/XRD_2ThetaOmega/W6776a_peaks.TXT
No.	Label	Pos. [°2Th.]	FWHM Left [°2Th.]	Area calc.	Assignment	h	k	l	Multiplicity	F obs.	F calc.	Area [cts*°2Th.]	Derivation	Backgr.[cts]	d-spacing [Å]	Height [cts]	K-A2 / K-A1 Ratio	Matched	Matched by	Rel. Int. [%]	Source	Status	Integral Breadth [°2Th.]
1	Cr2O3 1 1 0	35,8051(2)	0,123(1)	0,00	 	1	1	0	 	0,000000	0,000000	568,36	Pure KA1	44,04	2,50586	3539(20)	0,500	False	 	7,73	Profile fitting	Included	0,160596
2	Al2O3 1 1 0	37,71508(3)	0,05117(7)	0,00	 	1	1	0	 	0,000000	0,000000	2788,06	Pure KA1	43,64	2,38323	45809(71)	0,500	False	 	100,00	Profile fitting	Included	0,060862
3	Cr2O3 2 2 0	75,979(2)	0,240(8)	0,00	 	2	2	0	 	0,000000	0,000000	62,17	Pure KA1	16,18	1,25147	166(3)	0,500	False	 	0,36	Profile fitting	Included	0,374586
4	Al2O3 2 2 0	80,65203(7)	0,0670(2)	0,00	 	2	2	0	 	0,000000	0,000000	1090,11	Pure KA1	22,77	1,19032	12696(35)	0,500	False	 	27,72	Profile fitting	Included	0,085860

Note: README.md
# Methods
## RSM analysis

Check out [doc](documentation/RSM.md)

File: W6776a_absolute_2th-om_10-130deg_PIXscan_17min_11.xy
10.0035 32.0
10.4072 24.0
10.811 34.0
11.2147 33.0
11.6185 17.0
12.0222 32.0
12.426 28.0
12.8298 28.0
13.2335 28.0
13.6373 16.0
14.041 23.0
14.4448 20.0
14.8485 19.0
15.2523 15.0
15.656 20.0
16.0598 23.0
16.4636 13.0
16.8673 21.0
17.2711 20.0
17.6748 26.0
18.0786 25.0
18.4823 22.0
18.8861 24.0
19.2899 17.0
19.6936 26.0
20.0974 16.0
20.5011 21.0
20.9049 13.0
21.3086 13.0
21.7124 20.0
22.1161 10.0
22.5199 15.0
22.9237 10.0
23.3274 12.0
23.7312 15.0
24.1349 15.0
24.5387 29.0
24.9424 9.0
25.3462 20.0
25.75 15.0
26.1537 17.0
26.5575 18.0
26.9612 16.0
27.365 15.0
27.7687 13.0
28.1725 23.0
28.5762 11.0
28.98 13.0
29.3838 7.0
29.7875 20.0
30.1913 12.0
30.595 12.0
30.9988 16.0
31.4025 19.0
31.8063 17.0
32.2101 20.0
32.6138 5.0
33.0176 11.0
33.4213 13.0
33.8251 15.0
34.2288 33.0
34.6326 25.0
35.0363 50.0
35.4401 86.0
35.8439 3530.0
36.2476 81.0
36.6514 53.0
37.0551 68.0
37.4589 177.0
37.8626 2463.0
38.2664 101.0
38.6702 39.0
39.0739 17.0
39.4777 29.0
39.8814 12.0
40.2852 11.0
40.6889 15.0
41.0927 24.0
41.4964 15.0
41.9002 17.0
42.304 16.0
42.7077 15.0
43.1115 12.0
43.5152 7.0
43.919 14.0
44.3227 25.0
44.7265 13.0
45.1303 23.0
45.534 20.0
45.9378 15.0
46.3415 6.0
46.7453 11.0
47.149 13.0
47.5528 10.0
47.9565 8.0
48.3603 18.0
48.7641 10.0
49.1678 15.0
49.5716 5.0
49.9753 11.0
50.3791 15.0
50.7828 19.0
51.1866 13.0
51.5903 18.0
51.9941 19.0
52.3979 16.0
52.8016 13.0
53.2054 18.0
53.6091 13.0
54.0129 13.0
54.4166 16.0
54.8204 9.0
55.2242 20.0
55.6279 10.0
56.0317 13.0
56.4354 13.0
56.8392 14.0
57.2429 21.0
57.6467 14.0
58.0504 17.0
58.4542 20.0
58.858 15.0
59.2617 17.0
59.6655 14.0
60.0692 9.0
60.473 13.0
60.8767 18.0
61.2805 22.0
61.6843 6.0
62.088 19.0
62.4918 21.0
62.8955 17.0
63.2993 21.0
63.703 18.0
64.1068 21.0
64.5105 8.0
64.9143 20.0
65.3181 14.0
65.7218 20.0
66.1256 14.0
66.5293 12.0
66.9331 10.0
67.3368 10.0
67.7406 17.0
68.1444 11.0
68.5481 20.0
68.9519 10.0
69.3556 15.0
69.7594 8.0
70.1631 8.0
70.5669 11.0
70.9706 15.0
71.3744 20.0
71.7782 13.0
72.1819 17.0
72.5857 13.0
72.9894 9.0
73.3932 20.0
73.7969 16.0
74.2007 14.0
74.6045 17.0
75.0082 15.0
75.412 20.0
75.8157 66.0
76.2195 116.0
76.6232 68.0
77.027 22.0
77.4307 22.0
77.8345 16.0
78.2383 17.0
78.642 16.0
79.0458 31.0
79.4495 29.0
79.8533 33.0
80.257 94.0
80.6608 11942.0
81.0646 160.0
81.4683 44.0
81.8721 26.0
82.2758 36.0
82.6796 17.0
83.0833 20.0
83.4871 19.0
83.8908 19.0
84.2946 16.0
84.6984 19.0
85.1021 17.0
85.5059 13.0
85.9096 18.0
86.3134 17.0
86.7171 14.0
87.1209 14.0
87.5247 13.0
87.9284 20.0
88.3322 20.0
88.7359 14.0
89.1397 19.0
89.5434 19.0
89.9472 14.0
90.3509 9.0
90.7547 14.0
91.1585 14.0
91.5622 17.0
91.966 18.0
92.3697 17.0
92.7735 18.0
93.1772 20.0
93.581 16.0
93.9848 13.0
94.3885 17.0
94.7923 10.0
95.196 16.0
95.5998 17.0
96.0035 13.0
96.4073 24.0
96.811 19.0
97.2148 14.0
97.6186 13.0
98.0223 14.0
98.4261 14.0
98.8298 8.0
99.2336 21.0
99.6373 12.0
100.041 13.0
100.445 20.0
100.849 16.0
101.252 15.0
101.656 13.0
102.06 19.0
102.464 17.0
102.867 16.0
103.271 18.0
103.675 14.0
104.079 20.0
104.482 15.0
104.886 8.0
105.29 16.0
105.694 9.0
106.097 8.0
106.501 16.0
106.905 15.0
107.309 18.0
107.712 22.0
108.116 18.0
108.52 17.0
108.924 14.0
109.327 8.0
109.731 18.0
110.135 13.0
110.539 18.0
110.943 12.0
111.346 15.0
111.75 9.0
112.154 20.0
112.558 13.0
112.961 8.0
113.365 14.0
113.769 19.0
114.173 20.0
114.576 13.0
114.98 22.0
115.384 17.0
115.788 21.0
116.191 13.0
116.595 12.0
116.999 19.0
117.403 13.0
117.806 21.0
118.21 13.0
118.614 17.0
119.018 18.0
119.421 16.0
119.825 20.0
120.229 15.0
120.633 17.0
121.036 13.0
121.44 14.0
121.844 22.0
122.248 15.0
122.651 42.0
123.055 11.0
123.459 17.0
123.863 15.0
124.266 20.0
124.67 16.0
125.074 18.0
125.478 12.0
125.881 15.0
126.285 18.0
126.689 22.0
127.093 16.0
127.497 9.0
127.9 10.0
128.304 24.0
128.708 14.0
129.112 13.0
129.515 18.0
129.919 18.0
129.998 20.0