Folder: DataAnalysis/data/W6932r/XRD_2ThetaOmega

Note: data/W6932r/XRD_2ThetaOmega/W6932r_peaks.TXT
No.	Label	Pos. [°2Th.]	FWHM Left [°2Th.]	Area [cts*°2Th.]	Backgr.[cts]	d-spacing [Å]	Height [cts]	Shape Left	Status	Integral Breadth [°2Th.]	FWHM Right [°2Th.]	Shape Right	Obs. Lorentz B [°2Th.]	Obs. Gauss B [°2Th.]	Instr. Lorentz B [°2Th.]	Instr. Gauss B [°2Th.]	Crystallite Size [Å]	Micro Strain [%]	Crystallite Size only [Å]	Micro Strain only [%]
1	Cr2O3 0 2 4	50,0504(3)	0,2494(8)	923,17	170,78	1,82096	3339(11)	0,123(8)	Included	0,276487	 	 	0,039310	0,250759	0,074548	0,063155	-2764,555000	0,226815	401,375700	0,226840
2	Al2O3 0 2 4	52,50710(1)	0,03854(3)	17018,48	226,09	1,74140	338425(247)	0,5717(9)	Included	0,050287	 	 	0,030671	0,028273	0,074847	0,063409	-2227,982000	-0,050210	31120,440000	0,002798

Note: README.md
# Methods
## RSM analysis

Check out [doc](documentation/RSM.md)

File: scan_2th-om_r2_Cr2O3_45-55deg_PIXscan_5min.xy
45.0025 69.0
45.0369 69.0
45.0714 69.0
45.1059 63.0
45.1403 70.0
45.1748 64.0
45.2093 75.0
45.2437 71.0
45.2782 73.0
45.3127 58.0
45.3471 65.0
45.3816 63.0
45.4161 57.0
45.4505 68.0
45.485 53.0
45.5195 60.0
45.5539 64.0
45.5884 68.0
45.6229 61.0
45.6573 64.0
45.6918 60.0
45.7263 71.0
45.7607 62.0
45.7952 60.0
45.8297 73.0
45.8641 69.0
45.8986 52.0
45.9331 49.0
45.9675 58.0
46.002 78.0
46.0365 52.0
46.0709 70.0
46.1054 65.0
46.1399 63.0
46.1743 61.0
46.2088 75.0
46.2433 60.0
46.2777 54.0
46.3122 59.0
46.3467 72.0
46.3811 64.0
46.4156 51.0
46.4501 57.0
46.4845 68.0
46.519 62.0
46.5535 74.0
46.5879 56.0
46.6224 63.0
46.6569 73.0
46.6913 72.0
46.7258 62.0
46.7603 74.0
46.7947 72.0
46.8292 62.0
46.8637 75.0
46.8981 65.0
46.9326 74.0
46.9671 80.0
47.0015 88.0
47.036 120.0
47.0705 274.0
47.1049 980.0
47.1394 710.0
47.1739 219.0
47.2083 134.0
47.2428 97.0
47.2773 90.0
47.3118 106.0
47.3462 72.0
47.3807 79.0
47.4152 71.0
47.4496 70.0
47.4841 88.0
47.5186 71.0
47.553 68.0
47.5875 69.0
47.622 73.0
47.6564 70.0
47.6909 74.0
47.7254 76.0
47.7598 84.0
47.7943 63.0
47.8288 88.0
47.8632 76.0
47.8977 73.0
47.9322 78.0
47.9666 72.0
48.0011 67.0
48.0356 63.0
48.07 71.0
48.1045 82.0
48.139 79.0
48.1734 88.0
48.2079 82.0
48.2424 63.0
48.2768 74.0
48.3113 56.0
48.3458 59.0
48.3802 79.0
48.4147 76.0
48.4492 68.0
48.4836 84.0
48.5181 96.0
48.5526 64.0
48.587 71.0
48.6215 83.0
48.656 76.0
48.6904 85.0
48.7249 95.0
48.7594 71.0
48.7938 72.0
48.8283 103.0
48.8628 74.0
48.8972 85.0
48.9317 108.0
48.9662 84.0
49.0006 90.0
49.0351 90.0
49.0696 95.0
49.104 78.0
49.1385 89.0
49.173 85.0
49.2074 94.0
49.2419 121.0
49.2764 106.0
49.3108 131.0
49.3453 124.0
49.3798 118.0
49.4142 135.0
49.4487 142.0
49.4832 148.0
49.5176 165.0
49.5521 175.0
49.5866 195.0
49.621 243.0
49.6555 287.0
49.69 308.0
49.7244 407.0
49.7589 509.0
49.7934 645.0
49.8278 735.0
49.8623 914.0
49.8968 1345.0
49.9312 1733.0
49.9657 2462.0
50.0002 3493.0
50.0346 4365.0
50.0691 4762.0
50.1036 4301.0
50.138 3932.0
50.1725 3486.0
50.207 2923.0
50.2414 2303.0
50.2759 1608.0
50.3104 1094.0
50.3448 797.0
50.3793 586.0
50.4138 481.0
50.4482 372.0
50.4827 298.0
50.5172 270.0
50.5516 260.0
50.5861 216.0
50.6206 207.0
50.655 177.0
50.6895 177.0
50.724 192.0
50.7584 186.0
50.7929 153.0
50.8274 148.0
50.8619 163.0
50.8963 151.0
50.9308 138.0
50.9653 178.0
50.9997 159.0
51.0342 155.0
51.0687 168.0
51.1031 167.0
51.1376 171.0
51.1721 141.0
51.2065 170.0
51.241 185.0
51.2755 169.0
51.3099 212.0
51.3444 174.0
51.3789 200.0
51.4133 207.0
51.4478 258.0
51.4823 211.0
51.5167 274.0
51.5512 213.0
51.5857 282.0
51.6201 282.0
51.6546 323.0
51.6891 335.0
51.7235 320.0
51.758 321.0
51.7925 372.0
51.8269 357.0
51.8614 384.0
51.8959 447.0
51.9303 466.0
51.9648 491.0
51.9993 495.0
52.0337 605.0
52.0682 650.0
52.1027 717.0
52.1371 799.0
52.1716 996.0
52.2061 1385.0
52.2405 2306.0
52.275 2784.0
52.3095 2686.0
52.3439 2715.0
52.3784 3647.0
52.4129 6485.0
52.4473 15745.0
52.4818 107058.0
52.5163 288875.0
52.5507 35101.0
52.5852 15085.0
52.6197 50455.0
52.6541 152689.0
52.6886 23318.0
52.7231 6579.0
52.7575 3592.0
52.792 2526.0
52.8265 1815.0
52.8609 1516.0
52.8954 1259.0
52.9299 1054.0
52.9643 875.0
52.9988 754.0
53.0333 688.0
53.0677 623.0
53.1022 498.0
53.1367 479.0
53.1711 489.0
53.2056 411.0
53.2401 397.0
53.2745 381.0
53.309 359.0
53.3435 276.0
53.3779 268.0
53.4124 224.0
53.4469 214.0
53.4813 208.0
53.5158 198.0
53.5503 186.0
53.5847 186.0
53.6192 167.0
53.6537 145.0
53.6881 158.0
53.7226 151.0
53.7571 136.0
53.7915 128.0
53.826 130.0
53.8605 119.0
53.8949 139.0
53.9294 123.0
53.9639 109.0
53.9983 104.0
54.0328 107.0
54.0673 96.0
54.1017 122.0
54.1362 94.0
54.1707 108.0
54.2051 106.0
54.2396 114.0
54.2741 106.0
54.3085 90.0
54.343 95.0
54.3775 97.0
54.412 91.0
54.4464 83.0
54.4809 97.0
54.5154 75.0
54.5498 84.0
54.5843 93.0
54.6188 90.0
54.6532 69.0
54.6877 84.0
54.7222 80.0
54.7566 102.0
54.7911 87.0
54.8256 71.0
54.86 68.0
54.8945 80.0
54.929 81.0
54.9634 72.0
54.9979 87.0