Folder: DataAnalysis/data/W6932r/XRD_Omega

Note: data/W6932r/XRD_Omega/W6932r_omega_peaks.TXT
No.	Label	Pos. [記mega]	FWHM Left [記mega]	Area [cts*記mega]	Backgr.[cts]	d-spacing [魔	Height [cts]	Shape Left	Status	Integral Breadth [記mega]	FWHM Right [記mega]	Shape Right	Obs. Lorentz B [記mega]	Obs. Gauss B [記mega]	Instr. Lorentz B [記mega]	Instr. Gauss B [記mega]	Crystallite Size [魔	Micro Strain [%]	Crystallite Size only [魔	Micro Strain only [%]
1	Cr2O3 0 2 4	25,0555(6)	0,765(2)	1250,36	30,99	 	1417(3)	0,238(3)	Included	0,882425	 	 	0,236565	0,722694	0,074593	0,063190	558,259600	1,413696	109,432800	1,622549

Note: README.md
# Methods
## RSM analysis

Check out [doc](documentation/RSM.md)

File: film_r_scan_omega_4deg_step_0.005deg0.xy
23.06850 33.0
23.08350 46.0
23.09850 53.0
23.11350 49.0
23.12850 31.0
23.14350 32.0
23.15850 43.0
23.17350 28.0
23.18850 54.0
23.20350 30.0
23.21850 40.0
23.23350 48.0
23.24850 49.0
23.26350 43.0
23.27850 33.0
23.29350 50.0
23.30850 49.0
23.32350 51.0
23.33850 55.0
23.35350 33.0
23.36850 39.0
23.38350 35.0
23.39850 43.0
23.41350 51.0
23.42850 39.0
23.44350 47.0
23.45850 42.0
23.47350 50.0
23.48850 48.0
23.50350 36.0
23.51850 47.0
23.53350 47.0
23.54850 49.0
23.56350 52.0
23.57850 44.0
23.59350 38.0
23.60850 54.0
23.62350 52.0
23.63850 43.0
23.65350 57.0
23.66850 37.0
23.68350 50.0
23.69850 43.0
23.71350 40.0
23.72850 48.0
23.74350 44.0
23.75850 39.0
23.77350 52.0
23.78850 49.0
23.80350 57.0
23.81850 42.0
23.83350 55.0
23.84850 72.0
23.86350 55.0
23.87850 66.0
23.89350 66.0
23.90850 61.0
23.92350 73.0
23.93850 69.0
23.95350 71.0
23.96850 83.0
23.98350 76.0
23.99850 74.0
24.01350 90.0
24.02850 77.0
24.04350 116.0
24.05850 89.0
24.07350 95.0
24.08850 114.0
24.10350 127.0
24.11850 120.0
24.13350 132.0
24.14850 145.0
24.16350 110.0
24.17850 135.0
24.19350 139.0
24.20850 168.0
24.22350 146.0
24.23850 171.0
24.25350 159.0
24.26850 190.0
24.28350 188.0
24.29850 192.0
24.31350 204.0
24.32850 220.0
24.34350 231.0
24.35850 287.0
24.37350 307.0
24.38850 317.0
24.40350 315.0
24.41850 359.0
24.43350 382.0
24.44850 405.0
24.46350 405.0
24.47850 476.0
24.49350 441.0
24.50850 523.0
24.52350 550.0
24.53850 599.0
24.55350 597.0
24.56850 617.0
24.58350 701.0
24.59850 718.0
24.61350 827.0
24.62850 757.0
24.64350 829.0
24.65850 932.0
24.67350 991.0
24.68850 1054.0
24.70350 1086.0
24.71850 1139.0
24.73350 1200.0
24.74850 1308.0
24.76350 1367.0
24.77850 1483.0
24.79350 1530.0
24.80850 1518.0
24.82350 1761.0
24.83850 1686.0
24.85350 1795.0
24.86850 1833.0
24.88350 1906.0
24.89850 1983.0
24.91350 2091.0
24.92850 2014.0
24.94350 2099.0
24.95850 2207.0
24.97350 2247.0
24.98850 2180.0
25.00350 2137.0
25.01850 2159.0
25.03350 2223.0
25.04850 2292.0
25.06350 2218.0
25.07850 2165.0
25.09350 2234.0
25.10850 2157.0
25.12350 2185.0
25.13850 2155.0
25.15350 2045.0
25.16850 2011.0
25.18350 1965.0
25.19850 2000.0
25.21350 1912.0
25.22850 1893.0
25.24350 1832.0
25.25850 1827.0
25.27350 1705.0
25.28850 1666.0
25.30350 1675.0
25.31850 1589.0
25.33350 1508.0
25.34850 1418.0
25.36350 1369.0
25.37850 1332.0
25.39350 1255.0
25.40850 1272.0
25.42350 1222.0
25.43850 1073.0
25.45350 980.0
25.46850 993.0
25.48350 1000.0
25.49850 888.0
25.51350 883.0
25.52850 876.0
25.54350 755.0
25.55850 721.0
25.57350 642.0
25.58850 646.0
25.60350 617.0
25.61850 603.0
25.63350 550.0
25.64850 578.0
25.66350 504.0
25.67850 473.0
25.69350 464.0
25.70850 430.0
25.72350 406.0
25.73850 376.0
25.75350 372.0
25.76850 338.0
25.78350 347.0
25.79850 307.0
25.81350 295.0
25.82850 288.0
25.84350 258.0
25.85850 244.0
25.87350 246.0
25.88850 218.0
25.90350 225.0
25.91850 219.0
25.93350 178.0
25.94850 195.0
25.96350 187.0
25.97850 169.0
25.99350 160.0
26.00850 162.0
26.02350 164.0
26.03850 141.0
26.05350 157.0
26.06850 130.0
26.08350 123.0
26.09850 127.0
26.11350 116.0
26.12850 118.0
26.14350 120.0
26.15850 100.0
26.17350 93.0
26.18850 77.0
26.20350 94.0
26.21850 66.0
26.23350 84.0
26.24850 75.0
26.26350 71.0
26.27850 71.0
26.29350 69.0
26.30850 73.0
26.32350 64.0
26.33850 68.0
26.35350 64.0
26.36850 52.0
26.38350 72.0
26.39850 66.0
26.41350 56.0
26.42850 64.0
26.44350 50.0
26.45850 60.0
26.47350 59.0
26.48850 55.0
26.50350 51.0
26.51850 53.0
26.53350 58.0
26.54850 50.0
26.56350 52.0
26.57850 46.0
26.59350 62.0
26.60850 44.0
26.62350 57.0
26.63850 39.0
26.65350 38.0
26.66850 49.0
26.68350 45.0
26.69850 41.0
26.71350 42.0
26.72850 43.0
26.74350 55.0
26.75850 42.0
26.77350 43.0
26.78850 33.0
26.80350 36.0
26.81850 47.0
26.83350 44.0
26.84850 33.0
26.86350 32.0
26.87850 49.0
26.89350 34.0
26.90850 38.0
26.92350 29.0
26.93850 46.0
26.95350 31.0
26.96850 27.0
26.98350 36.0
26.99850 29.0
27.01350 42.0
27.02850 44.0