Folder: DataAnalysis/data/W6783c/XRD_Omega

Note: data/W6783c/XRD_Omega/W6783c_omega_peaks.TXT
No.	Label	Pos. [記mega]	FWHM Left [記mega]	Area [cts*記mega]	Backgr.[cts]	d-spacing [魔	Height [cts]	Shape Left	Status	Integral Breadth [記mega]	FWHM Right [記mega]	Shape Right	Obs. Lorentz B [記mega]	Obs. Gauss B [記mega]	Instr. Lorentz B [記mega]	Instr. Gauss B [記mega]	Crystallite Size [魔	Micro Strain [%]	Crystallite Size only [魔	Micro Strain only [%]
1	Cr2O3 0 0 6	19,5471(9)	0,72(2)	2026,63	1395,88	 	2631(200)	0,0(1)	Included	0,770312	 	 	0,001884	0,770312	0,075227	0,063726	-1221,251000	1,944562	116,664200	1,944780

Note: README.md
# Methods
## RSM analysis

Check out [doc](documentation/RSM.md)

File: W6783c_Cr2O3_scan_omega_2deg_step_0.002deg0_12.xy
18.62360 1150.0
18.63160 1145.0
18.63960 1154.0
18.64760 1157.0
18.65560 1306.0
18.66360 1233.0
18.67160 1249.0
18.67960 1233.0
18.68760 1264.0
18.69560 1322.0
18.70360 1324.0
18.71160 1365.0
18.71960 1316.0
18.72760 1345.0
18.73560 1413.0
18.74360 1445.0
18.75160 1433.0
18.75960 1445.0
18.76760 1492.0
18.77560 1506.0
18.78360 1515.0
18.79160 1599.0
18.79960 1645.0
18.80760 1687.0
18.81560 1720.0
18.82360 1634.0
18.83160 1628.0
18.83960 1675.0
18.84760 1787.0
18.85560 1870.0
18.86360 1867.0
18.87160 1919.0
18.87960 1854.0
18.88760 1920.0
18.89560 1880.0
18.90360 2056.0
18.91160 2159.0
18.91960 2025.0
18.92760 2139.0
18.93560 2135.0
18.94360 2153.0
18.95160 2261.0
18.95960 2302.0
18.96760 2287.0
18.97560 2314.0
18.98360 2379.0
18.99160 2416.0
18.99960 2550.0
19.00760 2610.0
19.01560 2589.0
19.02360 2696.0
19.03160 2696.0
19.03960 2775.0
19.04760 2789.0
19.05560 2795.0
19.06360 2972.0
19.07160 2943.0
19.07960 3068.0
19.08760 3183.0
19.09560 3239.0
19.10360 3197.0
19.11160 3377.0
19.11960 3463.0
19.12760 3567.0
19.13560 3506.0
19.14360 3547.0
19.15160 3658.0
19.15960 3730.0
19.16760 3927.0
19.17560 3871.0
19.18360 3950.0
19.19160 4159.0
19.19960 4275.0
19.20760 4158.0
19.21560 4279.0
19.22360 4503.0
19.23160 4578.0
19.23960 4521.0
19.24760 4632.0
19.25560 4752.0
19.26360 4782.0
19.27160 4783.0
19.27960 5043.0
19.28760 4980.0
19.29560 5108.0
19.30360 4949.0
19.31160 5174.0
19.31960 5262.0
19.32760 5331.0
19.33560 5443.0
19.34360 5471.0
19.35160 5528.0
19.35960 5622.0
19.36760 5537.0
19.37560 5622.0
19.38360 5635.0
19.39160 5899.0
19.39960 5991.0
19.40760 5971.0
19.41560 6011.0
19.42360 6002.0
19.43160 6072.0
19.43960 6134.0
19.44760 6211.0
19.45560 6103.0
19.46360 6260.0
19.47160 6200.0
19.47960 6278.0
19.48760 6327.0
19.49560 6410.0
19.50360 6458.0
19.51160 6400.0
19.51960 6403.0
19.52760 6506.0
19.53560 6286.0
19.54360 6482.0
19.55160 6517.0
19.55960 6344.0
19.56760 6426.0
19.57560 6261.0
19.58360 6343.0
19.59160 6351.0
19.59960 6301.0
19.60760 6372.0
19.61560 6229.0
19.62360 6369.0
19.63160 6417.0
19.63960 6224.0
19.64760 6097.0
19.65560 6156.0
19.66360 5967.0
19.67160 6102.0
19.67960 6138.0
19.68760 6084.0
19.69560 6033.0
19.70360 5859.0
19.71160 5926.0
19.71960 5870.0
19.72760 5872.0
19.73560 5877.0
19.74360 5936.0
19.75160 5724.0
19.75960 5539.0
19.76760 5730.0
19.77560 5521.0
19.78360 5739.0
19.79160 5498.0
19.79960 5357.0
19.80760 5313.0
19.81560 5366.0
19.82360 5262.0
19.83160 5102.0
19.83960 5115.0
19.84760 5011.0
19.85560 5046.0
19.86360 5008.0
19.87160 4923.0
19.87960 4810.0
19.88760 4842.0
19.89560 4786.0
19.90360 4642.0
19.91160 4671.0
19.91960 4520.0
19.92760 4413.0
19.93560 4423.0
19.94360 4345.0
19.95160 4277.0
19.95960 4247.0
19.96760 4204.0
19.97560 4215.0
19.98360 3960.0
19.99160 4040.0
19.99960 3903.0
20.00760 3747.0
20.01560 3854.0
20.02360 3775.0
20.03160 3591.0
20.03960 3650.0
20.04760 3646.0
20.05560 3566.0
20.06360 3341.0
20.07160 3281.0
20.07960 3440.0
20.08760 3257.0
20.09560 3191.0
20.10360 3120.0
20.11160 3177.0
20.11960 3025.0
20.12760 2949.0
20.13560 2938.0
20.14360 2934.0
20.15160 3055.0
20.15960 2933.0
20.16760 2795.0
20.17560 2765.0
20.18360 2681.0
20.19160 2671.0
20.19960 2696.0
20.20760 2615.0
20.21560 2444.0
20.22360 2484.0
20.23160 2471.0
20.23960 2432.0
20.24760 2443.0
20.25560 2325.0
20.26360 2349.0
20.27160 2216.0
20.27960 2215.0
20.28760 2123.0
20.29560 2102.0
20.30360 1991.0
20.31160 2102.0
20.31960 1955.0
20.32760 1929.0
20.33560 1912.0
20.34360 1799.0
20.35160 1773.0
20.35960 1786.0
20.36760 1760.0
20.37560 1710.0
20.38360 1796.0
20.39160 1759.0
20.39960 1609.0
20.40760 1678.0
20.41560 1616.0
20.42360 1554.0
20.43160 1605.0
20.43960 1556.0
20.44760 1562.0
20.45560 1522.0
20.46360 1435.0
20.47160 1428.0
20.47960 1406.0
20.48760 1433.0
20.49560 1365.0
20.50360 1363.0
20.51160 1286.0
20.51960 1262.0
20.52760 1317.0
20.53560 1264.0
20.54360 1272.0
20.55160 1224.0
20.55960 1245.0
20.56760 1255.0
20.57560 1146.0
20.58360 1174.0
20.59160 1183.0
20.59960 1135.0
20.60760 1120.0