Folder: DataAnalysis/data/w6929m/XRD_2ThetaOmega

Note: data/w6929m/XRD_2ThetaOmega/W6929m_peaks.TXT
No.	Label	Pos. [°2Th.]	FWHM Left [°2Th.]	Area [cts*°2Th.]	Backgr.[cts]	d-spacing [Å]	Height [cts]	Shape Left	Status	Integral Breadth [°2Th.]	FWHM Right [°2Th.]	Shape Right	Obs. Lorentz B [°2Th.]	Obs. Gauss B [°2Th.]	Instr. Lorentz B [°2Th.]	Instr. Gauss B [°2Th.]	Crystallite Size [Å]	Micro Strain [%]	Crystallite Size only [Å]	Micro Strain only [%]
1	Cr2O3 3 0 0	64,9035(4)	0,276(1)	718,70	96,24	1,43555	2089(10)	0,451(8)	Included	0,344103	 	 	0,168730	0,225945	0,077443	0,065608	1145,888000	0,148359	376,277900	0,190756
2	Al2O3 3 0 0	68,16876(1)	0,04469(5)	13786,81	108,74	1,37452	225806(198)	0,685(1)	Included	0,061056	 	 	0,043829	0,028623	0,078473	0,066480	-3076,391000	-0,038692	33699,320000	0,002039

Note: README.md
# Methods
## RSM analysis

Check out [doc](documentation/RSM.md)

File: 29m_scan_2th-om_m_Cr2O3_55-75deg_PIXscan_4min_2.xy
55.0019 53.0
55.0708 41.0
55.1397 51.0
55.2087 63.0
55.2776 60.0
55.3465 63.0
55.4155 63.0
55.4844 57.0
55.5533 64.0
55.6223 64.0
55.6912 61.0
55.7601 57.0
55.8291 53.0
55.898 52.0
55.9669 58.0
56.0359 79.0
56.1048 62.0
56.1737 66.0
56.2427 58.0
56.3116 53.0
56.3805 68.0
56.4495 74.0
56.5184 47.0
56.5873 46.0
56.6563 60.0
56.7252 46.0
56.7941 52.0
56.8631 46.0
56.932 62.0
57.0009 65.0
57.0699 51.0
57.1388 57.0
57.2077 58.0
57.2767 70.0
57.3456 58.0
57.4146 60.0
57.4835 65.0
57.5524 56.0
57.6214 53.0
57.6903 49.0
57.7592 65.0
57.8282 67.0
57.8971 69.0
57.966 50.0
58.035 55.0
58.1039 68.0
58.1728 66.0
58.2418 60.0
58.3107 52.0
58.3796 53.0
58.4486 59.0
58.5175 49.0
58.5864 69.0
58.6554 50.0
58.7243 50.0
58.7932 57.0
58.8622 49.0
58.9311 63.0
59 61.0
59.069 53.0
59.1379 62.0
59.2068 71.0
59.2758 69.0
59.3447 59.0
59.4136 43.0
59.4826 62.0
59.5515 51.0
59.6204 52.0
59.6894 59.0
59.7583 58.0
59.8272 52.0
59.8962 54.0
59.9651 61.0
60.034 58.0
60.103 55.0
60.1719 59.0
60.2408 51.0
60.3098 62.0
60.3787 56.0
60.4476 62.0
60.5166 64.0
60.5855 72.0
60.6544 53.0
60.7234 66.0
60.7923 162.0
60.8613 656.0
60.9302 284.0
60.9991 95.0
61.0681 75.0
61.137 63.0
61.2059 70.0
61.2749 70.0
61.3438 60.0
61.4127 59.0
61.4817 69.0
61.5506 73.0
61.6195 63.0
61.6885 51.0
61.7574 55.0
61.8263 70.0
61.8953 65.0
61.9642 64.0
62.0331 57.0
62.1021 65.0
62.171 68.0
62.2399 67.0
62.3089 72.0
62.3778 60.0
62.4467 64.0
62.5157 70.0
62.5846 63.0
62.6535 78.0
62.7225 65.0
62.7914 63.0
62.8603 66.0
62.9293 66.0
62.9982 70.0
63.0671 52.0
63.1361 79.0
63.205 69.0
63.2739 58.0
63.3429 79.0
63.4118 77.0
63.4807 62.0
63.5497 84.0
63.6186 68.0
63.6875 89.0
63.7565 77.0
63.8254 84.0
63.8943 87.0
63.9633 97.0
64.0322 100.0
64.1011 103.0
64.1701 94.0
64.239 143.0
64.3079 143.0
64.3769 160.0
64.4458 204.0
64.5148 213.0
64.5837 349.0
64.6526 504.0
64.7216 779.0
64.7905 1369.0
64.8594 2210.0
64.9284 2602.0
64.9973 2329.0
65.0662 1913.0
65.1352 1445.0
65.2041 928.0
65.273 544.0
65.342 357.0
65.4109 211.0
65.4798 178.0
65.5488 132.0
65.6177 122.0
65.6866 108.0
65.7556 104.0
65.8245 113.0
65.8934 117.0
65.9624 113.0
66.0313 109.0
66.1002 112.0
66.1692 118.0
66.2381 113.0
66.307 121.0
66.376 131.0
66.4449 122.0
66.5138 134.0
66.5828 134.0
66.6517 157.0
66.7206 169.0
66.7896 180.0
66.8585 162.0
66.9274 166.0
66.9964 193.0
67.0653 198.0
67.1342 221.0
67.2032 263.0
67.2721 317.0
67.341 285.0
67.41 363.0
67.4789 372.0
67.5478 406.0
67.6168 463.0
67.6857 570.0
67.7546 957.0
67.8236 1674.0
67.8925 1717.0
67.9615 1973.0
68.0304 3637.0
68.0993 12169.0
68.1683 236194.0
68.2372 14847.0
68.3061 13431.0
68.3751 84667.0
68.444 5933.0
68.5129 2266.0
68.5819 1453.0
68.6508 950.0
68.7197 750.0
68.7887 590.0
68.8576 433.0
68.9265 408.0
68.9955 343.0
69.0644 330.0
69.1333 306.0
69.2023 200.0
69.2712 194.0
69.3401 187.0
69.4091 171.0
69.478 168.0
69.5469 128.0
69.6159 140.0
69.6848 122.0
69.7537 119.0
69.8227 106.0
69.8916 96.0
69.9605 93.0
70.0295 85.0
70.0984 83.0
70.1673 90.0
70.2363 75.0
70.3052 76.0
70.3741 80.0
70.4431 88.0
70.512 89.0
70.5809 86.0
70.6499 72.0
70.7188 68.0
70.7877 77.0
70.8567 63.0
70.9256 71.0
70.9945 64.0
71.0635 77.0
71.1324 70.0
71.2013 85.0
71.2703 75.0
71.3392 73.0
71.4082 69.0
71.4771 63.0
71.546 75.0
71.615 67.0
71.6839 74.0
71.7528 86.0
71.8218 69.0
71.8907 77.0
71.9596 67.0
72.0286 72.0
72.0975 58.0
72.1664 66.0
72.2354 72.0
72.3043 60.0
72.3732 70.0
72.4422 77.0
72.5111 59.0
72.58 80.0
72.649 48.0
72.7179 63.0
72.7868 65.0
72.8558 75.0
72.9247 64.0
72.9936 53.0
73.0626 56.0
73.1315 58.0
73.2004 61.0
73.2694 62.0
73.3383 63.0
73.4072 66.0
73.4762 71.0
73.5451 73.0
73.614 69.0
73.683 71.0
73.7519 61.0
73.8208 55.0
73.8898 62.0
73.9587 47.0
74.0276 46.0
74.0966 66.0
74.1655 49.0
74.2344 57.0
74.3034 60.0
74.3723 48.0
74.4412 55.0
74.5102 53.0
74.5791 53.0
74.648 51.0
74.717 58.0
74.7859 63.0
74.8548 68.0
74.9238 69.0
74.9927 51.0
74.9976 70.0