Folder: DataAnalysis/data/w6929m/XRD_Omega

Note: data/w6929m/XRD_Omega/W6929m_omega_peaks.TXT
No.	Label	Pos. [記mega]	FWHM Left [記mega]	Area [cts*記mega]	Backgr.[cts]	d-spacing [魔	Height [cts]	Shape Left	Status	Integral Breadth [記mega]	FWHM Right [記mega]	Shape Right	Obs. Lorentz B [記mega]	Obs. Gauss B [記mega]	Instr. Lorentz B [記mega]	Instr. Gauss B [記mega]	Crystallite Size [魔	Micro Strain [%]	Crystallite Size only [魔	Micro Strain only [%]
1	Cr2O3 3 0 0	31,9236(7)	0,727(2)	866,19	40,50	 	1072(3)	0,130(4)	Included	0,807737	 	 	0,121381	0,728050	0,074087	0,062763	1941,246000	1,106513	121,509400	1,152637

Note: README.md
# Methods
## RSM analysis

Check out [doc](documentation/RSM.md)

File: film_m_can_omega_4deg_step_0.005deg0_C2.xy
29.92560 40.0
29.94060 36.0
29.95560 35.0
29.97060 36.0
29.98560 36.0
30.00060 42.0
30.01560 33.0
30.03060 33.0
30.04560 46.0
30.06060 28.0
30.07560 42.0
30.09060 39.0
30.10560 36.0
30.12060 42.0
30.13560 37.0
30.15060 38.0
30.16560 43.0
30.18060 38.0
30.19560 55.0
30.21060 32.0
30.22560 26.0
30.24060 43.0
30.25560 42.0
30.27060 37.0
30.28560 45.0
30.30060 47.0
30.31560 42.0
30.33060 43.0
30.34560 41.0
30.36060 40.0
30.37560 40.0
30.39060 39.0
30.40560 30.0
30.42060 41.0
30.43560 44.0
30.45060 48.0
30.46560 34.0
30.48060 52.0
30.49560 48.0
30.51060 42.0
30.52560 39.0
30.54060 48.0
30.55560 59.0
30.57060 32.0
30.58560 62.0
30.60060 44.0
30.61560 41.0
30.63060 63.0
30.64560 48.0
30.66060 61.0
30.67560 53.0
30.69060 54.0
30.70560 58.0
30.72060 55.0
30.73560 52.0
30.75060 47.0
30.76560 60.0
30.78060 57.0
30.79560 66.0
30.81060 59.0
30.82560 61.0
30.84060 56.0
30.85560 57.0
30.87060 76.0
30.88560 69.0
30.90060 55.0
30.91560 64.0
30.93060 72.0
30.94560 71.0
30.96060 70.0
30.97560 87.0
30.99060 69.0
31.00560 73.0
31.02060 86.0
31.03560 94.0
31.05060 87.0
31.06560 93.0
31.08060 96.0
31.09560 115.0
31.11060 116.0
31.12560 115.0
31.14060 128.0
31.15560 124.0
31.17060 114.0
31.18560 141.0
31.20060 143.0
31.21560 145.0
31.23060 178.0
31.24560 168.0
31.26060 166.0
31.27560 188.0
31.29060 196.0
31.30560 248.0
31.32060 237.0
31.33560 247.0
31.35060 274.0
31.36560 314.0
31.38060 298.0
31.39560 357.0
31.41060 424.0
31.42560 399.0
31.44060 419.0
31.45560 501.0
31.47060 455.0
31.48560 535.0
31.50060 615.0
31.51560 599.0
31.53060 671.0
31.54560 702.0
31.56060 751.0
31.57560 754.0
31.59060 833.0
31.60560 892.0
31.62060 996.0
31.63560 1011.0
31.65060 1052.0
31.66560 1177.0
31.68060 1221.0
31.69560 1217.0
31.71060 1278.0
31.72560 1285.0
31.74060 1462.0
31.75560 1430.0
31.77060 1464.0
31.78560 1521.0
31.80060 1601.0
31.81560 1628.0
31.83060 1609.0
31.84560 1625.0
31.86060 1641.0
31.87560 1614.0
31.89060 1598.0
31.90560 1602.0
31.92060 1675.0
31.93560 1606.0
31.95060 1650.0
31.96560 1659.0
31.98060 1638.0
31.99560 1586.0
32.01060 1713.0
32.02560 1546.0
32.04060 1624.0
32.05560 1565.0
32.07060 1480.0
32.08560 1395.0
32.10060 1392.0
32.11560 1287.0
32.13060 1297.0
32.14560 1278.0
32.16060 1261.0
32.17560 1259.0
32.19060 1144.0
32.20560 1193.0
32.22060 1044.0
32.23560 1050.0
32.25060 963.0
32.26560 988.0
32.28060 878.0
32.29560 848.0
32.31060 877.0
32.32560 881.0
32.34060 758.0
32.35560 688.0
32.37060 675.0
32.38560 659.0
32.40060 605.0
32.41560 580.0
32.43060 494.0
32.44560 453.0
32.46060 472.0
32.47560 400.0
32.49060 430.0
32.50560 388.0
32.52060 371.0
32.53560 372.0
32.55060 314.0
32.56560 281.0
32.58060 274.0
32.59560 239.0
32.61060 259.0
32.62560 224.0
32.64060 239.0
32.65560 199.0
32.67060 181.0
32.68560 202.0
32.70060 173.0
32.71560 149.0
32.73060 180.0
32.74560 153.0
32.76060 158.0
32.77560 111.0
32.79060 128.0
32.80560 136.0
32.82060 107.0
32.83560 120.0
32.85060 122.0
32.86560 106.0
32.88060 97.0
32.89560 104.0
32.91060 91.0
32.92560 89.0
32.94060 93.0
32.95560 81.0
32.97060 97.0
32.98560 69.0
33.00060 72.0
33.01560 76.0
33.03060 70.0
33.04560 65.0
33.06060 64.0
33.07560 72.0
33.09060 69.0
33.10560 67.0
33.12060 66.0
33.13560 61.0
33.15060 69.0
33.16560 59.0
33.18060 44.0
33.19560 52.0
33.21060 57.0
33.22560 52.0
33.24060 51.0
33.25560 54.0
33.27060 53.0
33.28560 45.0
33.30060 34.0
33.31560 46.0
33.33060 50.0
33.34560 46.0
33.36060 40.0
33.37560 43.0
33.39060 54.0
33.40560 46.0
33.42060 50.0
33.43560 47.0
33.45060 42.0
33.46560 39.0
33.48060 42.0
33.49560 40.0
33.51060 38.0
33.52560 49.0
33.54060 40.0
33.55560 40.0
33.57060 32.0
33.58560 37.0
33.60060 43.0
33.61560 36.0
33.63060 31.0
33.64560 44.0
33.66060 32.0
33.67560 37.0
33.69060 43.0
33.70560 33.0
33.72060 30.0
33.73560 50.0
33.75060 42.0
33.76560 31.0
33.78060 39.0
33.79560 31.0
33.81060 28.0
33.82560 37.0
33.84060 30.0
33.85560 44.0
33.87060 33.0
33.88560 41.0