Folder: DataAnalysis/data/W6815r1/XRD_2ThetaOmega

Note: data/W6815r1/XRD_2ThetaOmega/W6815r1_peaks.TXT
No.	Label	Pos. [°2Th.]	FWHM Left [°2Th.]	Area [cts*°2Th.]	Backgr.[cts]	d-spacing [Å]	Height [cts]	Shape Left	Status	Integral Breadth [°2Th.]	FWHM Right [°2Th.]	Shape Right	Obs. Lorentz B [°2Th.]	Obs. Gauss B [°2Th.]	Instr. Lorentz B [°2Th.]	Instr. Gauss B [°2Th.]	Crystallite Size [Å]	Micro Strain [%]	Crystallite Size only [Å]	Micro Strain only [%]
1	Cr2O3 0 1 2	24,3227(5)	0,207(2)	167,42	40,30	3,65651	685(5)	0,31(2)	Included	0,244339	 	 	0,083874	0,187004	0,074666	0,063252	9806,642000	0,356317	496,526900	0,368209
2	Al2O3 0 1 2	25,51780(3)	0,04743(6)	3008,44	73,77	3,48790	55050(84)	0,236(2)	Included	0,054649	 	 	0,014544	0,044832	0,074549	0,063153	-1508,295000	-0,085707	28616,830000	0,006094
3	Cr2O3 0 2 4	49,942(1)	0,325(5)	118,57	13,78	1,82467	269(3)	0,66(2)	Included	0,440722	 	 	0,307673	0,214501	0,074536	0,063145	417,659100	0,192073	258,665300	0,352709
4	Al2O3 0 2 4	52,49553(3)	0,05397(8)	3397,28	15,32	1,74176	50772(76)	0,439(2)	Included	0,066912	 	 	0,031987	0,044561	0,074845	0,063408	-2296,356000	-0,039917	31118,890000	0,002799
5	Cr2O3 0 3 6	78,63(1)	0,68(6)	14,70	8,77	1,21575	14(1)	1,0(2)	Included	1,062541	 	 	1,057556	0,017944	0,082970	0,070288	117,068500	-0,036208	117,067300	0,519254
6	Al2O3 0 3 6	83,1711(2)	0,0686(4)	184,86	15,75	1,16055	2183(14)	0,427(9)	Included	0,084700	 	 	0,039481	0,057170	0,085585	0,072503	-2559,693000	-0,021925	37314,850000	0,001555
7	Al2O3 0 4 8	124,5840(1)	0,1016(2)	1233,21	19,90	0,87007	8942(7)	0,669(6)	Included	0,137916	 	 	0,096896	0,066571	0,144538	0,122415	-3984,728000	-0,023542	60026,410000	0,000725

Note: README.md
# Methods
## RSM analysis

Check out [doc](documentation/RSM.md)

File: W6815r1_absolute_2th-om_10-130deg_PIXscan_17min_5.xy
10.0035 25.0
10.4072 21.0
10.811 21.0
11.2147 19.0
11.6185 24.0
12.0222 15.0
12.426 23.0
12.8298 23.0
13.2335 24.0
13.6373 23.0
14.041 19.0
14.4448 11.0
14.8485 13.0
15.2523 17.0
15.656 20.0
16.0598 19.0
16.4636 13.0
16.8673 16.0
17.2711 18.0
17.6748 16.0
18.0786 11.0
18.4823 13.0
18.8861 14.0
19.2899 12.0
19.6936 15.0
20.0974 7.0
20.5011 17.0
20.9049 7.0
21.3086 18.0
21.7124 11.0
22.1161 13.0
22.5199 14.0
22.9237 16.0
23.3274 24.0
23.7312 31.0
24.1349 186.0
24.5387 160.0
24.9424 55.0
25.3462 262.0
25.75 371.0
26.1537 114.0
26.5575 29.0
26.9612 20.0
27.365 15.0
27.7687 9.0
28.1725 12.0
28.5762 8.0
28.98 12.0
29.3838 13.0
29.7875 8.0
30.1913 9.0
30.595 4.0
30.9988 13.0
31.4025 7.0
31.8063 11.0
32.2101 12.0
32.6138 6.0
33.0176 3.0
33.4213 10.0
33.8251 7.0
34.2288 9.0
34.6326 12.0
35.0363 9.0
35.4401 11.0
35.8439 11.0
36.2476 6.0
36.6514 10.0
37.0551 15.0
37.4589 5.0
37.8626 9.0
38.2664 9.0
38.6702 10.0
39.0739 6.0
39.4777 11.0
39.8814 8.0
40.2852 8.0
40.6889 8.0
41.0927 4.0
41.4964 12.0
41.9002 7.0
42.304 11.0
42.7077 5.0
43.1115 8.0
43.5152 15.0
43.919 11.0
44.3227 9.0
44.7265 16.0
45.1303 13.0
45.534 12.0
45.9378 6.0
46.3415 12.0
46.7453 11.0
47.149 54.0
47.5528 21.0
47.9565 17.0
48.3603 8.0
48.7641 16.0
49.1678 16.0
49.5716 47.0
49.9753 345.0
50.3791 38.0
50.7828 21.0
51.1866 30.0
51.5903 36.0
51.9941 71.0
52.3979 1237.0
52.8016 475.0
53.2054 121.0
53.6091 80.0
54.0129 44.0
54.4166 16.0
54.8204 17.0
55.2242 22.0
55.6279 19.0
56.0317 21.0
56.4354 13.0
56.8392 17.0
57.2429 12.0
57.6467 19.0
58.0504 6.0
58.4542 3.0
58.858 9.0
59.2617 10.0
59.6655 13.0
60.0692 6.0
60.473 13.0
60.8767 10.0
61.2805 13.0
61.6843 7.0
62.088 6.0
62.4918 13.0
62.8955 18.0
63.2993 13.0
63.703 11.0
64.1068 14.0
64.5105 16.0
64.9143 6.0
65.3181 14.0
65.7218 5.0
66.1256 20.0
66.5293 16.0
66.9331 18.0
67.3368 10.0
67.7406 10.0
68.1444 9.0
68.5481 7.0
68.9519 15.0
69.3556 12.0
69.7594 12.0
70.1631 9.0
70.5669 12.0
70.9706 15.0
71.3744 13.0
71.7782 19.0
72.1819 12.0
72.5857 8.0
72.9894 15.0
73.3932 9.0
73.7969 16.0
74.2007 15.0
74.6045 8.0
75.0082 4.0
75.412 9.0
75.8157 16.0
76.2195 15.0
76.6232 14.0
77.027 9.0
77.4307 14.0
77.8345 15.0
78.2383 22.0
78.642 30.0
79.0458 29.0
79.4495 11.0
79.8533 9.0
80.257 17.0
80.6608 16.0
81.0646 12.0
81.4683 8.0
81.8721 12.0
82.2758 13.0
82.6796 22.0
83.0833 126.0
83.4871 176.0
83.8908 18.0
84.2946 11.0
84.6984 15.0
85.1021 17.0
85.5059 10.0
85.9096 12.0
86.3134 14.0
86.7171 15.0
87.1209 14.0
87.5247 10.0
87.9284 18.0
88.3322 10.0
88.7359 15.0
89.1397 15.0
89.5434 7.0
89.9472 8.0
90.3509 8.0
90.7547 12.0
91.1585 11.0
91.5622 4.0
91.966 14.0
92.3697 7.0
92.7735 12.0
93.1772 13.0
93.581 8.0
93.9848 13.0
94.3885 13.0
94.7923 18.0
95.196 11.0
95.5998 18.0
96.0035 8.0
96.4073 12.0
96.811 19.0
97.2148 20.0
97.6186 21.0
98.0223 7.0
98.4261 14.0
98.8298 18.0
99.2336 14.0
99.6373 13.0
100.041 15.0
100.445 8.0
100.849 10.0
101.252 14.0
101.656 16.0
102.06 17.0
102.464 10.0
102.867 12.0
103.271 19.0
103.675 13.0
104.079 14.0
104.482 14.0
104.886 9.0
105.29 7.0
105.694 19.0
106.097 18.0
106.501 11.0
106.905 9.0
107.309 10.0
107.712 10.0
108.116 15.0
108.52 9.0
108.924 18.0
109.327 16.0
109.731 12.0
110.135 10.0
110.539 11.0
110.943 11.0
111.346 18.0
111.75 7.0
112.154 13.0
112.558 5.0
112.961 6.0
113.365 16.0
113.769 12.0
114.173 11.0
114.576 22.0
114.98 13.0
115.384 7.0
115.788 19.0
116.191 27.0
116.595 13.0
116.999 14.0
117.403 12.0
117.806 10.0
118.21 12.0
118.614 13.0
119.018 8.0
119.421 14.0
119.825 19.0
120.229 14.0
120.633 10.0
121.036 12.0
121.44 15.0
121.844 16.0
122.248 10.0
122.651 15.0
123.055 26.0
123.459 24.0
123.863 48.0
124.266 140.0
124.67 2175.0
125.074 2238.0
125.478 97.0
125.881 48.0
126.285 26.0
126.689 21.0
127.093 23.0
127.497 23.0
127.9 23.0
128.304 20.0
128.708 18.0
129.112 19.0
129.515 14.0
129.919 23.0
129.998 15.0