Folder: DataAnalysis/data/W6815r1/XRD_Omega

Note: data/W6815r1/XRD_Omega/W6815r1_omega_peaks.TXT
No.	Label	Pos. [記mega]	FWHM Left [記mega]	Area [cts*記mega]	Backgr.[cts]	d-spacing [魔	Height [cts]	Shape Left	Status	Integral Breadth [記mega]	FWHM Right [記mega]	Shape Right	Obs. Lorentz B [記mega]	Obs. Gauss B [記mega]	Instr. Lorentz B [記mega]	Instr. Gauss B [記mega]	Crystallite Size [魔	Micro Strain [%]	Crystallite Size only [魔	Micro Strain only [%]
1	Cr2O3 0 2 4	24,765(1)	0,918(2)	819,45	39,00	 	770(2)	0,251(5)	Included	1,063694	 	 	0,300251	0,860465	0,074621	0,063214	400,533400	1,705506	89,725920	2,001757

Note: README.md
# Methods
## RSM analysis

Check out [doc](documentation/RSM.md)

File: w6815r1_scan_omega.xy
22.78330 26.0
22.79830 42.0
22.81330 30.0
22.82830 49.0
22.84330 36.0
22.85830 48.0
22.87330 50.0
22.88830 38.0
22.90330 56.0
22.91830 59.0
22.93330 45.0
22.94830 48.0
22.96330 45.0
22.97830 41.0
22.99330 41.0
23.00830 47.0
23.02330 41.0
23.03830 39.0
23.05330 48.0
23.06830 48.0
23.08330 42.0
23.09830 40.0
23.11330 48.0
23.12830 53.0
23.14330 46.0
23.15830 42.0
23.17330 49.0
23.18830 47.0
23.20330 48.0
23.21830 45.0
23.23330 60.0
23.24830 68.0
23.26330 51.0
23.27830 53.0
23.29330 60.0
23.30830 53.0
23.32330 75.0
23.33830 61.0
23.35330 64.0
23.36830 56.0
23.38330 62.0
23.39830 70.0
23.41330 62.0
23.42830 60.0
23.44330 77.0
23.45830 67.0
23.47330 64.0
23.48830 88.0
23.50330 80.0
23.51830 78.0
23.53330 70.0
23.54830 78.0
23.56330 90.0
23.57830 88.0
23.59330 95.0
23.60830 104.0
23.62330 110.0
23.63830 80.0
23.65330 100.0
23.66830 92.0
23.68330 116.0
23.69830 96.0
23.71330 129.0
23.72830 132.0
23.74330 121.0
23.75830 120.0
23.77330 112.0
23.78830 131.0
23.80330 145.0
23.81830 147.0
23.83330 150.0
23.84830 175.0
23.86330 169.0
23.87830 183.0
23.89330 158.0
23.90830 184.0
23.92330 175.0
23.93830 190.0
23.95330 178.0
23.96830 188.0
23.98330 230.0
23.99830 237.0
24.01330 234.0
24.02830 243.0
24.04330 277.0
24.05830 297.0
24.07330 278.0
24.08830 333.0
24.10330 285.0
24.11830 329.0
24.13330 328.0
24.14830 353.0
24.16330 321.0
24.17830 401.0
24.19330 392.0
24.20830 429.0
24.22330 420.0
24.23830 472.0
24.25330 499.0
24.26830 499.0
24.28330 502.0
24.29830 531.0
24.31330 524.0
24.32830 577.0
24.34330 639.0
24.35830 645.0
24.37330 636.0
24.38830 643.0
24.40330 694.0
24.41830 778.0
24.43330 807.0
24.44830 763.0
24.46330 829.0
24.47830 862.0
24.49330 871.0
24.50830 875.0
24.52330 948.0
24.53830 973.0
24.55330 976.0
24.56830 997.0
24.58330 1072.0
24.59830 1017.0
24.61330 1011.0
24.62830 1122.0
24.64330 1039.0
24.65830 1126.0
24.67330 1179.0
24.68830 1166.0
24.70330 1217.0
24.71830 1238.0
24.73330 1177.0
24.74830 1248.0
24.76330 1283.0
24.77830 1228.0
24.79330 1202.0
24.80830 1229.0
24.82330 1290.0
24.83830 1250.0
24.85330 1171.0
24.86830 1161.0
24.88330 1176.0
24.89830 1224.0
24.91330 1242.0
24.92830 1191.0
24.94330 1174.0
24.95830 1124.0
24.97330 1101.0
24.98830 1064.0
25.00330 1044.0
25.01830 981.0
25.03330 943.0
25.04830 952.0
25.06330 930.0
25.07830 881.0
25.09330 872.0
25.10830 818.0
25.12330 815.0
25.13830 779.0
25.15330 775.0
25.16830 708.0
25.18330 694.0
25.19830 635.0
25.21330 635.0
25.22830 632.0
25.24330 643.0
25.25830 546.0
25.27330 543.0
25.28830 545.0
25.30330 507.0
25.31830 503.0
25.33330 434.0
25.34830 431.0
25.36330 409.0
25.37830 435.0
25.39330 396.0
25.40830 339.0
25.42330 344.0
25.43830 350.0
25.45330 281.0
25.46830 305.0
25.48330 303.0
25.49830 289.0
25.51330 250.0
25.52830 245.0
25.54330 250.0
25.55830 243.0
25.57330 202.0
25.58830 201.0
25.60330 212.0
25.61830 210.0
25.63330 175.0
25.64830 177.0
25.66330 179.0
25.67830 177.0
25.69330 164.0
25.70830 157.0
25.72330 134.0
25.73830 140.0
25.75330 145.0
25.76830 137.0
25.78330 134.0
25.79830 108.0
25.81330 144.0
25.82830 115.0
25.84330 135.0
25.85830 112.0
25.87330 122.0
25.88830 87.0
25.90330 106.0
25.91830 91.0
25.93330 92.0
25.94830 99.0
25.96330 90.0
25.97830 79.0
25.99330 89.0
26.00830 75.0
26.02330 78.0
26.03830 75.0
26.05330 69.0
26.06830 76.0
26.08330 77.0
26.09830 74.0
26.11330 57.0
26.12830 80.0
26.14330 77.0
26.15830 58.0
26.17330 46.0
26.18830 69.0
26.20330 55.0
26.21830 51.0
26.23330 62.0
26.24830 63.0
26.26330 61.0
26.27830 56.0
26.29330 56.0
26.30830 49.0
26.32330 50.0
26.33830 40.0
26.35330 44.0
26.36830 41.0
26.38330 48.0
26.39830 55.0
26.41330 48.0
26.42830 39.0
26.44330 48.0
26.45830 43.0
26.47330 46.0
26.48830 48.0
26.50330 34.0
26.51830 37.0
26.53330 36.0
26.54830 41.0
26.56330 36.0
26.57830 39.0
26.59330 52.0
26.60830 44.0
26.62330 43.0
26.63830 31.0
26.65330 46.0
26.66830 42.0
26.68330 42.0
26.69830 29.0
26.71330 32.0
26.72830 34.0
26.74330 28.0
26.75330 39.0