Folder: DataAnalysis/data/W6908r/XRD_Omega

Note: data/W6908r/XRD_Omega/W6908r_omega_peaks.TXT
No.	Label	Pos. [記mega]	FWHM Left [記mega]	Area [cts*記mega]	Backgr.[cts]	d-spacing [魔	Height [cts]	Shape Left	Status	Integral Breadth [記mega]	FWHM Right [記mega]	Shape Right	Obs. Lorentz B [記mega]	Obs. Gauss B [記mega]	Instr. Lorentz B [記mega]	Instr. Gauss B [記mega]	Crystallite Size [魔	Micro Strain [%]	Crystallite Size only [魔	Micro Strain only [%]
1	Cr2O3 0 2 4	25,064(4)	0,71(2)	103,90	54,00	 	93(1)	1,00(3)	Included	1,115597	 	 	1,110362	0,018840	0,074592	0,063189	87,301260	-0,118400	87,300450	2,033252

Note: README.md
# Methods
## RSM analysis

Check out [doc](documentation/RSM.md)

File: w6908r_r-Cr2O3_scan_omega_4deg_step_0.005deg0.xy
23.10080 72.0
23.11580 62.0
23.13080 63.0
23.14580 68.0
23.16080 57.0
23.17580 78.0
23.19080 58.0
23.20580 56.0
23.22080 55.0
23.23580 62.0
23.25080 64.0
23.26580 88.0
23.28080 54.0
23.29580 68.0
23.31080 57.0
23.32580 66.0
23.34080 55.0
23.35580 58.0
23.37080 68.0
23.38580 72.0
23.40080 66.0
23.41580 72.0
23.43080 59.0
23.44580 74.0
23.46080 64.0
23.47580 63.0
23.49080 52.0
23.50580 61.0
23.52080 78.0
23.53580 73.0
23.55080 62.0
23.56580 66.0
23.58080 63.0
23.59580 63.0
23.61080 73.0
23.62580 85.0
23.64080 78.0
23.65580 68.0
23.67080 74.0
23.68580 65.0
23.70080 47.0
23.71580 64.0
23.73080 88.0
23.74580 58.0
23.76080 62.0
23.77580 64.0
23.79080 90.0
23.80580 94.0
23.82080 64.0
23.83580 71.0
23.85080 72.0
23.86580 78.0
23.88080 90.0
23.89580 75.0
23.91080 76.0
23.92580 70.0
23.94080 79.0
23.95580 81.0
23.97080 81.0
23.98580 80.0
24.00080 82.0
24.01580 96.0
24.03080 95.0
24.04580 70.0
24.06080 81.0
24.07580 73.0
24.09080 95.0
24.10580 85.0
24.12080 67.0
24.13580 88.0
24.15080 77.0
24.16580 84.0
24.18080 73.0
24.19580 86.0
24.21080 95.0
24.22580 98.0
24.24080 103.0
24.25580 85.0
24.27080 92.0
24.28580 92.0
24.30080 102.0
24.31580 82.0
24.33080 91.0
24.34580 105.0
24.36080 94.0
24.37580 94.0
24.39080 91.0
24.40580 88.0
24.42080 95.0
24.43580 89.0
24.45080 99.0
24.46580 106.0
24.48080 103.0
24.49580 92.0
24.51080 89.0
24.52580 89.0
24.54080 105.0
24.55580 114.0
24.57080 107.0
24.58580 121.0
24.60080 114.0
24.61580 89.0
24.63080 98.0
24.64580 109.0
24.66080 120.0
24.67580 116.0
24.69080 118.0
24.70580 119.0
24.72080 121.0
24.73580 123.0
24.75080 112.0
24.76580 125.0
24.78080 129.0
24.79580 115.0
24.81080 126.0
24.82580 129.0
24.84080 119.0
24.85580 118.0
24.87080 116.0
24.88580 96.0
24.90080 135.0
24.91580 117.0
24.93080 130.0
24.94580 180.0
24.96080 180.0
24.97580 190.0
24.99080 232.0
25.00580 195.0
25.02080 194.0
25.03580 241.0
25.05080 291.0
25.06580 291.0
25.08080 251.0
25.09580 253.0
25.11080 215.0
25.12580 251.0
25.14080 235.0
25.15580 239.0
25.17080 267.0
25.18580 244.0
25.20080 208.0
25.21580 172.0
25.23080 166.0
25.24580 141.0
25.26080 132.0
25.27580 109.0
25.29080 126.0
25.30580 128.0
25.32080 117.0
25.33580 122.0
25.35080 97.0
25.36580 124.0
25.38080 132.0
25.39580 111.0
25.41080 124.0
25.42580 100.0
25.44080 112.0
25.45580 109.0
25.47080 100.0
25.48580 121.0
25.50080 113.0
25.51580 114.0
25.53080 116.0
25.54580 115.0
25.56080 104.0
25.57580 113.0
25.59080 105.0
25.60580 105.0
25.62080 100.0
25.63580 108.0
25.65080 103.0
25.66580 112.0
25.68080 104.0
25.69580 97.0
25.71080 84.0
25.72580 109.0
25.74080 91.0
25.75580 81.0
25.77080 81.0
25.78580 91.0
25.80080 79.0
25.81580 86.0
25.83080 118.0
25.84580 76.0
25.86080 89.0
25.87580 105.0
25.89080 89.0
25.90580 80.0
25.92080 97.0
25.93580 94.0
25.95080 96.0
25.96580 88.0
25.98080 84.0
25.99580 102.0
26.01080 87.0
26.02580 100.0
26.04080 88.0
26.05580 75.0
26.07080 86.0
26.08580 84.0
26.10080 91.0
26.11580 82.0
26.13080 70.0
26.14580 75.0
26.16080 69.0
26.17580 75.0
26.19080 83.0
26.20580 72.0
26.22080 96.0
26.23580 93.0
26.25080 79.0
26.26580 63.0
26.28080 87.0
26.29580 80.0
26.31080 81.0
26.32580 79.0
26.34080 72.0
26.35580 65.0
26.37080 60.0
26.38580 70.0
26.40080 60.0
26.41580 73.0
26.43080 67.0
26.44580 70.0
26.46080 59.0
26.47580 58.0
26.49080 74.0
26.50580 73.0
26.52080 56.0
26.53580 61.0
26.55080 61.0
26.56580 68.0
26.58080 59.0
26.59580 69.0
26.61080 70.0
26.62580 53.0
26.64080 59.0
26.65580 67.0
26.67080 61.0
26.68580 49.0
26.70080 57.0
26.71580 63.0
26.73080 75.0
26.74580 66.0
26.76080 49.0
26.77580 59.0
26.79080 55.0
26.80580 53.0
26.82080 45.0
26.83580 57.0
26.85080 66.0
26.86580 59.0
26.88080 58.0
26.89580 58.0
26.91080 61.0
26.92580 61.0
26.94080 56.0
26.95580 51.0
26.97080 57.0
26.98580 57.0
27.00080 53.0
27.01580 69.0
27.03080 56.0
27.04580 55.0
27.06080 54.0