Folder: DataAnalysis/data/W6908r/XRD_2ThetaOmega

Note: data/W6908r/XRD_2ThetaOmega/W6908r_peaks.TXT
No.	Label	Pos. [°2Th.]	FWHM Left [°2Th.]	Area [cts*°2Th.]	Backgr.[cts]	d-spacing [Å]	Height [cts]	Shape Left	Status	Integral Breadth [°2Th.]	FWHM Right [°2Th.]	Shape Right	Obs. Lorentz B [°2Th.]	Obs. Gauss B [°2Th.]	Instr. Lorentz B [°2Th.]	Instr. Gauss B [°2Th.]	Crystallite Size [Å]	Micro Strain [%]	Crystallite Size only [Å]	Micro Strain only [%]
1	Cr2O3 0 2 4	50,446(7)	1,53(2)	337,77	75,38	1,80761	156(2)	0,78(4)	Included	2,171626	 	 	1,750873	0,828683	0,074591	0,063193	58,207790	0,765367	45,800430	1,973360
2	Al2O3 0 2 4	52,50242(1)	0,05480(3)	29354,06	75,38	1,74155	431603(220)	0,4416(7)	Included	0,068012	 	 	0,032715	0,045140	0,074846	0,063409	-2336,041000	-0,039399	31119,820000	0,002798

Note: README.md
# Methods
## RSM analysis

Check out [doc](documentation/RSM.md)

File: w6908r_scan_2th-om_r2_Cr2O3_45-55deg_PIXscan_5min.xy
45.0025 102.0
45.0369 92.0
45.0714 95.0
45.1059 85.0
45.1403 99.0
45.1748 124.0
45.2093 93.0
45.2437 112.0
45.2782 91.0
45.3127 74.0
45.3471 91.0
45.3816 107.0
45.4161 118.0
45.4505 106.0
45.485 102.0
45.5195 93.0
45.5539 99.0
45.5884 111.0
45.6229 114.0
45.6573 111.0
45.6918 88.0
45.7263 96.0
45.7607 109.0
45.7952 115.0
45.8297 93.0
45.8641 99.0
45.8986 92.0
45.9331 81.0
45.9675 104.0
46.002 121.0
46.0365 96.0
46.0709 90.0
46.1054 104.0
46.1399 101.0
46.1743 118.0
46.2088 119.0
46.2433 111.0
46.2777 90.0
46.3122 95.0
46.3467 86.0
46.3811 88.0
46.4156 136.0
46.4501 95.0
46.4845 100.0
46.519 110.0
46.5535 106.0
46.5879 114.0
46.6224 94.0
46.6569 97.0
46.6913 132.0
46.7258 114.0
46.7603 111.0
46.7947 104.0
46.8292 109.0
46.8637 128.0
46.8981 111.0
46.9326 123.0
46.9671 118.0
47.0015 156.0
47.036 172.0
47.0705 727.0
47.1049 1506.0
47.1394 1068.0
47.1739 395.0
47.2083 310.0
47.2428 173.0
47.2773 133.0
47.3118 106.0
47.3462 137.0
47.3807 140.0
47.4152 127.0
47.4496 137.0
47.4841 111.0
47.5186 129.0
47.553 131.0
47.5875 117.0
47.622 124.0
47.6564 136.0
47.6909 102.0
47.7254 108.0
47.7598 103.0
47.7943 104.0
47.8288 125.0
47.8632 113.0
47.8977 111.0
47.9322 116.0
47.9666 94.0
48.0011 101.0
48.0356 125.0
48.07 118.0
48.1045 105.0
48.139 118.0
48.1734 126.0
48.2079 106.0
48.2424 104.0
48.2768 114.0
48.3113 118.0
48.3458 114.0
48.3802 114.0
48.4147 110.0
48.4492 115.0
48.4836 125.0
48.5181 129.0
48.5526 130.0
48.587 102.0
48.6215 108.0
48.656 121.0
48.6904 123.0
48.7249 140.0
48.7594 94.0
48.7938 111.0
48.8283 121.0
48.8628 115.0
48.8972 109.0
48.9317 142.0
48.9662 149.0
49.0006 142.0
49.0351 152.0
49.0696 136.0
49.104 122.0
49.1385 133.0
49.173 119.0
49.2074 134.0
49.2419 117.0
49.2764 124.0
49.3108 149.0
49.3453 126.0
49.3798 145.0
49.4142 138.0
49.4487 144.0
49.4832 149.0
49.5176 175.0
49.5521 149.0
49.5866 137.0
49.621 167.0
49.6555 158.0
49.69 196.0
49.7244 164.0
49.7589 218.0
49.7934 231.0
49.8278 205.0
49.8623 202.0
49.8968 216.0
49.9312 226.0
49.9657 240.0
50.0002 233.0
50.0346 219.0
50.0691 264.0
50.1036 269.0
50.138 295.0
50.1725 310.0
50.207 291.0
50.2414 279.0
50.2759 305.0
50.3104 284.0
50.3448 255.0
50.3793 280.0
50.4138 284.0
50.4482 278.0
50.4827 315.0
50.5172 282.0
50.5516 303.0
50.5861 276.0
50.6206 262.0
50.655 274.0
50.6895 272.0
50.724 230.0
50.7584 255.0
50.7929 257.0
50.8274 261.0
50.8619 257.0
50.8963 233.0
50.9308 289.0
50.9653 266.0
50.9997 261.0
51.0342 290.0
51.0687 287.0
51.1031 297.0
51.1376 323.0
51.1721 347.0
51.2065 325.0
51.241 357.0
51.2755 359.0
51.3099 378.0
51.3444 383.0
51.3789 395.0
51.4133 403.0
51.4478 424.0
51.4823 430.0
51.5167 463.0
51.5512 539.0
51.5857 527.0
51.6201 513.0
51.6546 558.0
51.6891 623.0
51.7235 589.0
51.758 654.0
51.7925 684.0
51.8269 706.0
51.8614 694.0
51.8959 753.0
51.9303 778.0
51.9648 839.0
51.9993 852.0
52.0337 1083.0
52.0682 1137.0
52.1027 1350.0
52.1371 1500.0
52.1716 1779.0
52.2061 2653.0
52.2405 4050.0
52.275 4784.0
52.3095 4649.0
52.3439 5088.0
52.3784 7249.0
52.4129 13456.0
52.4473 41626.0
52.4818 325290.0
52.5163 375743.0
52.5507 66331.0
52.5852 32181.0
52.6197 152021.0
52.6541 191505.0
52.6886 41787.0
52.7231 10921.0
52.7575 6167.0
52.792 4248.0
52.8265 3303.0
52.8609 2575.0
52.8954 2102.0
52.9299 1752.0
52.9643 1456.0
52.9988 1262.0
53.0333 1181.0
53.0677 1052.0
53.1022 925.0
53.1367 839.0
53.1711 760.0
53.2056 746.0
53.2401 670.0
53.2745 574.0
53.309 533.0
53.3435 503.0
53.3779 504.0
53.4124 459.0
53.4469 381.0
53.4813 420.0
53.5158 406.0
53.5503 328.0
53.5847 312.0
53.6192 310.0
53.6537 303.0
53.6881 268.0
53.7226 270.0
53.7571 208.0
53.7915 217.0
53.826 216.0
53.8605 203.0
53.8949 224.0
53.9294 196.0
53.9639 174.0
53.9983 173.0
54.0328 163.0
54.0673 160.0
54.1017 158.0
54.1362 181.0
54.1707 185.0
54.2051 169.0
54.2396 153.0
54.2741 153.0
54.3085 160.0
54.343 167.0
54.3775 152.0
54.412 171.0
54.4464 169.0
54.4809 159.0
54.5154 152.0
54.5498 151.0
54.5843 146.0
54.6188 144.0
54.6532 151.0
54.6877 140.0
54.7222 142.0
54.7566 146.0
54.7911 154.0
54.8256 139.0
54.86 130.0
54.8945 158.0
54.929 126.0
54.9634 144.0
54.9979 145.0