Folder: DataAnalysis/data/W6905c/XRD_2ThetaOmega

Note: data/W6905c/XRD_2ThetaOmega/W6905c_peaks.TXT
No.	Label	Pos. [°2Th.]	FWHM Left [°2Th.]	Area [cts*°2Th.]	Backgr.[cts]	d-spacing [Å]	Height [cts]	Shape Left	Status	Integral Breadth [°2Th.]	FWHM Right [°2Th.]	Shape Right	Obs. Lorentz B [°2Th.]	Obs. Gauss B [°2Th.]	Instr. Lorentz B [°2Th.]	Instr. Gauss B [°2Th.]	Crystallite Size [Å]	Micro Strain [%]	Crystallite Size only [Å]	Micro Strain only [%]
1	Cr2O3 0 0 6	39,235(1)	0,573(4)	511,69	139,23	2,29436	649(4)	0,70(2)	Included	0,788035	 	 	0,577539	0,358413	0,073933	0,062634	186,076100	0,432016	128,060100	0,895815
2	Al2O3 0 0 6	41,62519(3)	0,05150(6)	3888,67	148,14	2,16795	63447(84)	0,328(2)	Included	0,061290	 	 	0,022291	0,046004	0,073977	0,062671	-1827,009000	-0,048854	29858,570000	0,003630

Note: README.md
# Methods
## RSM analysis

Check out [doc](documentation/RSM.md)

File: scan_2th-om_c_Cr2O3_35-45deg_PIXscan_4min_C6.xy
35.0021 153.0
35.0365 128.0
35.071 119.0
35.1055 153.0
35.1399 135.0
35.1744 144.0
35.2089 148.0
35.2433 126.0
35.2778 145.0
35.3123 137.0
35.3467 142.0
35.3812 129.0
35.4157 126.0
35.4501 146.0
35.4846 146.0
35.5191 130.0
35.5535 142.0
35.588 132.0
35.6225 117.0
35.6569 120.0
35.6914 141.0
35.7259 125.0
35.7603 138.0
35.7948 138.0
35.8293 134.0
35.8637 138.0
35.8982 142.0
35.9327 134.0
35.9671 140.0
36.0016 148.0
36.0361 134.0
36.0705 142.0
36.105 146.0
36.1395 158.0
36.1739 137.0
36.2084 144.0
36.2429 148.0
36.2773 147.0
36.3118 148.0
36.3463 141.0
36.3807 141.0
36.4152 146.0
36.4497 131.0
36.4841 144.0
36.5186 131.0
36.5531 160.0
36.5875 152.0
36.622 130.0
36.6565 118.0
36.6909 120.0
36.7254 139.0
36.7599 145.0
36.7943 112.0
36.8288 129.0
36.8633 134.0
36.8977 123.0
36.9322 142.0
36.9667 160.0
37.0011 141.0
37.0356 134.0
37.0701 134.0
37.1045 120.0
37.139 164.0
37.1735 139.0
37.2079 144.0
37.2424 129.0
37.2769 137.0
37.3114 133.0
37.3458 116.0
37.3803 160.0
37.4148 199.0
37.4492 372.0
37.4837 209.0
37.5182 184.0
37.5526 148.0
37.5871 128.0
37.6216 140.0
37.656 149.0
37.6905 125.0
37.725 136.0
37.7594 161.0
37.7939 140.0
37.8284 137.0
37.8628 137.0
37.8973 135.0
37.9318 163.0
37.9662 137.0
38.0007 144.0
38.0352 163.0
38.0696 133.0
38.1041 151.0
38.1386 172.0
38.173 164.0
38.2075 174.0
38.242 189.0
38.2764 183.0
38.3109 195.0
38.3454 216.0
38.3798 241.0
38.4143 232.0
38.4488 256.0
38.4832 286.0
38.5177 321.0
38.5522 309.0
38.5866 355.0
38.6211 360.0
38.6556 339.0
38.69 379.0
38.7245 419.0
38.759 390.0
38.7934 444.0
38.8279 501.0
38.8624 495.0
38.8968 514.0
38.9313 539.0
38.9658 568.0
39.0002 572.0
39.0347 650.0
39.0692 733.0
39.1036 766.0
39.1381 849.0
39.1726 869.0
39.207 980.0
39.2415 1142.0
39.276 1131.0
39.3104 1084.0
39.3449 1125.0
39.3794 1107.0
39.4138 1042.0
39.4483 1012.0
39.4828 907.0
39.5172 760.0
39.5517 676.0
39.5862 589.0
39.6206 502.0
39.6551 387.0
39.6896 353.0
39.724 317.0
39.7585 286.0
39.793 270.0
39.8274 238.0
39.8619 236.0
39.8964 237.0
39.9308 222.0
39.9653 174.0
39.9998 179.0
40.0342 160.0
40.0687 162.0
40.1032 174.0
40.1376 162.0
40.1721 160.0
40.2066 160.0
40.241 153.0
40.2755 152.0
40.31 164.0
40.3444 146.0
40.3789 159.0
40.4134 167.0
40.4478 147.0
40.4823 157.0
40.5168 139.0
40.5512 152.0
40.5857 162.0
40.6202 171.0
40.6546 153.0
40.6891 188.0
40.7236 179.0
40.758 175.0
40.7925 177.0
40.827 177.0
40.8615 173.0
40.8959 184.0
40.9304 211.0
40.9649 204.0
40.9993 172.0
41.0338 179.0
41.0683 197.0
41.1027 215.0
41.1372 215.0
41.1717 212.0
41.2061 209.0
41.2406 281.0
41.2751 310.0
41.3095 303.0
41.344 362.0
41.3785 439.0
41.4129 693.0
41.4474 881.0
41.4819 940.0
41.5163 1136.0
41.5508 2187.0
41.5853 12230.0
41.6197 57319.0
41.6542 30483.0
41.6887 6754.0
41.7231 28426.0
41.7576 20529.0
41.7921 2356.0
41.8265 1122.0
41.861 637.0
41.8955 543.0
41.9299 466.0
41.9644 352.0
41.9989 341.0
42.0333 307.0
42.0678 267.0
42.1023 256.0
42.1367 227.0
42.1712 216.0
42.2057 195.0
42.2401 196.0
42.2746 181.0
42.3091 177.0
42.3435 171.0
42.378 189.0
42.4125 158.0
42.4469 158.0
42.4814 167.0
42.5159 161.0
42.5503 165.0
42.5848 157.0
42.6193 141.0
42.6537 162.0
42.6882 147.0
42.7227 136.0
42.7571 150.0
42.7916 153.0
42.8261 159.0
42.8605 141.0
42.895 148.0
42.9295 148.0
42.9639 163.0
42.9984 138.0
43.0329 163.0
43.0673 143.0
43.1018 140.0
43.1363 135.0
43.1707 138.0
43.2052 148.0
43.2397 131.0
43.2741 148.0
43.3086 135.0
43.3431 147.0
43.3775 141.0
43.412 155.0
43.4465 134.0
43.4809 157.0
43.5154 135.0
43.5499 127.0
43.5843 143.0
43.6188 156.0
43.6533 144.0
43.6877 146.0
43.7222 137.0
43.7567 149.0
43.7911 162.0
43.8256 170.0
43.8601 152.0
43.8945 165.0
43.929 172.0
43.9635 160.0
43.9979 145.0
44.0324 152.0
44.0669 179.0
44.1013 166.0
44.1358 158.0
44.1703 177.0
44.2047 183.0
44.2392 194.0
44.2737 257.0
44.3081 243.0
44.3426 280.0
44.3771 285.0
44.4116 343.0
44.446 318.0
44.4805 287.0
44.515 260.0
44.5494 268.0
44.5839 228.0
44.6184 207.0
44.6528 176.0
44.6873 162.0
44.7218 168.0
44.7562 158.0
44.7907 164.0
44.8252 148.0
44.8596 153.0
44.8941 154.0
44.9286 143.0
44.963 125.0
44.9975 128.0