Folder: DataAnalysis/data/W6905c/XRD_Omega

Note: data/W6905c/XRD_Omega/W6905c_omega_peaks.TXT
No.	Label	Pos. [記mega]	FWHM Left [記mega]	Area [cts*記mega]	Backgr.[cts]	d-spacing [魔	Height [cts]	Shape Left	Status	Integral Breadth [記mega]	FWHM Right [記mega]	Shape Right	Obs. Lorentz B [記mega]	Obs. Gauss B [記mega]	Instr. Lorentz B [記mega]	Instr. Gauss B [記mega]	Crystallite Size [魔	Micro Strain [%]	Crystallite Size only [魔	Micro Strain only [%]
1	Cr2O3 0 0 6	19,685(2)	1,249(6)	490,72	71,08	 	329(1)	0,34(1)	Included	1,493130	 	 	0,562698	1,106443	0,075209	0,063710	183,775200	2,778004	62,410010	3,610129

Note: README.md
# Methods
## RSM analysis

Check out [doc](documentation/RSM.md)

File: scan_omega_4deg_step_0.005deg0_C6_3.xy
17.72310 80.0
17.73810 107.0
17.75310 84.0
17.76810 83.0
17.78310 90.0
17.79810 91.0
17.81310 69.0
17.82810 77.0
17.84310 84.0
17.85810 86.0
17.87310 101.0
17.88810 92.0
17.90310 87.0
17.91810 103.0
17.93310 104.0
17.94810 84.0
17.96310 101.0
17.97810 86.0
17.99310 87.0
18.00810 96.0
18.02310 96.0
18.03810 91.0
18.05310 97.0
18.06810 90.0
18.08310 86.0
18.09810 108.0
18.11310 90.0
18.12810 100.0
18.14310 109.0
18.15810 104.0
18.17310 113.0
18.18810 116.0
18.20310 109.0
18.21810 91.0
18.23310 100.0
18.24810 108.0
18.26310 98.0
18.27810 94.0
18.29310 110.0
18.30810 113.0
18.32310 108.0
18.33810 107.0
18.35310 126.0
18.36810 106.0
18.38310 120.0
18.39810 122.0
18.41310 132.0
18.42810 126.0
18.44310 128.0
18.45810 126.0
18.47310 131.0
18.48810 151.0
18.50310 146.0
18.51810 143.0
18.53310 117.0
18.54810 134.0
18.56310 134.0
18.57810 153.0
18.59310 176.0
18.60810 153.0
18.62310 170.0
18.63810 150.0
18.65310 152.0
18.66810 164.0
18.68310 156.0
18.69810 173.0
18.71310 195.0
18.72810 198.0
18.74310 184.0
18.75810 206.0
18.77310 210.0
18.78810 188.0
18.80310 183.0
18.81810 215.0
18.83310 221.0
18.84810 213.0
18.86310 225.0
18.87810 253.0
18.89310 237.0
18.90810 228.0
18.92310 248.0
18.93810 264.0
18.95310 282.0
18.96810 238.0
18.98310 274.0
18.99810 249.0
19.01310 286.0
19.02810 291.0
19.04310 326.0
19.05810 304.0
19.07310 306.0
19.08810 329.0
19.10310 330.0
19.11810 334.0
19.13310 347.0
19.14810 363.0
19.16310 344.0
19.17810 348.0
19.19310 388.0
19.20810 381.0
19.22310 388.0
19.23810 390.0
19.25310 403.0
19.26810 430.0
19.28310 450.0
19.29810 420.0
19.31310 463.0
19.32810 464.0
19.34310 448.0
19.35810 471.0
19.37310 473.0
19.38810 481.0
19.40310 471.0
19.41810 491.0
19.43310 445.0
19.44810 497.0
19.46310 526.0
19.47810 477.0
19.49310 446.0
19.50810 505.0
19.52310 551.0
19.53810 583.0
19.55310 535.0
19.56810 541.0
19.58310 550.0
19.59810 592.0
19.61310 556.0
19.62810 621.0
19.64310 579.0
19.65810 547.0
19.67310 599.0
19.68810 607.0
19.70310 561.0
19.71810 605.0
19.73310 535.0
19.74810 549.0
19.76310 543.0
19.77810 558.0
19.79310 586.0
19.80810 545.0
19.82310 631.0
19.83810 576.0
19.85310 569.0
19.86810 536.0
19.88310 499.0
19.89810 508.0
19.91310 526.0
19.92810 515.0
19.94310 503.0
19.95810 504.0
19.97310 455.0
19.98810 502.0
20.00310 498.0
20.01810 457.0
20.03310 497.0
20.04810 480.0
20.06310 476.0
20.07810 418.0
20.09310 444.0
20.10810 421.0
20.12310 408.0
20.13810 387.0
20.15310 360.0
20.16810 425.0
20.18310 427.0
20.19810 421.0
20.21310 377.0
20.22810 344.0
20.24310 332.0
20.25810 321.0
20.27310 342.0
20.28810 325.0
20.30310 312.0
20.31810 309.0
20.33310 277.0
20.34810 328.0
20.36310 281.0
20.37810 305.0
20.39310 277.0
20.40810 279.0
20.42310 247.0
20.43810 213.0
20.45310 246.0
20.46810 240.0
20.48310 255.0
20.49810 206.0
20.51310 223.0
20.52810 207.0
20.54310 189.0
20.55810 200.0
20.57310 210.0
20.58810 164.0
20.60310 206.0
20.61810 176.0
20.63310 168.0
20.64810 180.0
20.66310 184.0
20.67810 175.0
20.69310 177.0
20.70810 175.0
20.72310 172.0
20.73810 169.0
20.75310 136.0
20.76810 150.0
20.78310 153.0
20.79810 146.0
20.81310 165.0
20.82810 140.0
20.84310 143.0
20.85810 128.0
20.87310 108.0
20.88810 142.0
20.90310 124.0
20.91810 116.0
20.93310 118.0
20.94810 130.0
20.96310 112.0
20.97810 101.0
20.99310 105.0
21.00810 113.0
21.02310 96.0
21.03810 112.0
21.05310 96.0
21.06810 109.0
21.08310 114.0
21.09810 107.0
21.11310 98.0
21.12810 90.0
21.14310 96.0
21.15810 97.0
21.17310 118.0
21.18810 84.0
21.20310 92.0
21.21810 93.0
21.23310 95.0
21.24810 82.0
21.26310 81.0
21.27810 82.0
21.29310 85.0
21.30810 107.0
21.32310 100.0
21.33810 84.0
21.35310 89.0
21.36810 92.0
21.38310 79.0
21.39810 92.0
21.41310 80.0
21.42810 89.0
21.44310 65.0
21.45810 91.0
21.47310 79.0
21.48810 84.0
21.50310 73.0
21.51810 75.0
21.53310 86.0
21.54810 64.0
21.56310 74.0
21.57810 53.0
21.59310 96.0
21.60810 73.0
21.62310 64.0
21.63810 59.0
21.65310 73.0
21.66810 66.0
21.68310 62.0