Folder: DataAnalysis/data/W6906m/XRD_Omega

Note: data/W6906m/XRD_Omega/W6906m_omega_peaks.TXT
No.	Label	Pos. [記mega]	FWHM Left [記mega]	Area [cts*記mega]	Backgr.[cts]	d-spacing [魔	Height [cts]	Shape Left	Status	Integral Breadth [記mega]	FWHM Right [記mega]	Shape Right	Obs. Lorentz B [記mega]	Obs. Gauss B [記mega]	Instr. Lorentz B [記mega]	Instr. Gauss B [記mega]	Crystallite Size [魔	Micro Strain [%]	Crystallite Size only [魔	Micro Strain only [%]
1	Cr2O3 3 0 0	32,573(2)	0,901(6)	266,90	72,99	 	244(2)	0,38(2)	Included	1,092779	 	 	0,455782	0,777551	0,074057	0,062738	240,906400	1,157460	88,764860	1,547223

Note: README.md
# Methods
## RSM analysis

Check out [doc](documentation/RSM.md)

File: scan_omega_4deg_step_0.005deg0_C7_2.xy
30.58020 63.0
30.59520 81.0
30.61020 70.0
30.62520 76.0
30.64020 75.0
30.65520 69.0
30.67020 68.0
30.68520 92.0
30.70020 92.0
30.71520 75.0
30.73020 68.0
30.74520 76.0
30.76020 72.0
30.77520 80.0
30.79020 88.0
30.80520 88.0
30.82020 71.0
30.83520 80.0
30.85020 77.0
30.86520 65.0
30.88020 80.0
30.89520 77.0
30.91020 85.0
30.92520 87.0
30.94020 73.0
30.95520 84.0
30.97020 96.0
30.98520 71.0
31.00020 88.0
31.01520 77.0
31.03020 92.0
31.04520 95.0
31.06020 77.0
31.07520 80.0
31.09020 95.0
31.10520 82.0
31.12020 96.0
31.13520 88.0
31.15020 76.0
31.16520 93.0
31.18020 92.0
31.19520 68.0
31.21020 91.0
31.22520 83.0
31.24020 76.0
31.25520 78.0
31.27020 95.0
31.28520 96.0
31.30020 75.0
31.31520 75.0
31.33020 66.0
31.34520 89.0
31.36020 103.0
31.37520 101.0
31.39020 102.0
31.40520 92.0
31.42020 85.0
31.43520 113.0
31.45020 86.0
31.46520 121.0
31.48020 119.0
31.49520 98.0
31.51020 101.0
31.52520 97.0
31.54020 101.0
31.55520 98.0
31.57020 102.0
31.58520 104.0
31.60020 92.0
31.61520 107.0
31.63020 104.0
31.64520 124.0
31.66020 124.0
31.67520 115.0
31.69020 123.0
31.70520 122.0
31.72020 110.0
31.73520 113.0
31.75020 130.0
31.76520 124.0
31.78020 142.0
31.79520 146.0
31.81020 133.0
31.82520 126.0
31.84020 136.0
31.85520 147.0
31.87020 148.0
31.88520 141.0
31.90020 150.0
31.91520 168.0
31.93020 186.0
31.94520 165.0
31.96020 171.0
31.97520 199.0
31.99020 176.0
32.00520 173.0
32.02020 173.0
32.03520 208.0
32.05020 201.0
32.06520 226.0
32.08020 221.0
32.09520 247.0
32.11020 220.0
32.12520 221.0
32.14020 206.0
32.15520 243.0
32.17020 246.0
32.18520 263.0
32.20020 249.0
32.21520 298.0
32.23020 265.0
32.24520 321.0
32.26020 298.0
32.27520 296.0
32.29020 324.0
32.30520 304.0
32.32020 328.0
32.33520 351.0
32.35020 350.0
32.36520 342.0
32.38020 399.0
32.39520 353.0
32.41020 372.0
32.42520 375.0
32.44020 412.0
32.45520 435.0
32.47020 423.0
32.48520 472.0
32.50020 483.0
32.51520 466.0
32.53020 436.0
32.54520 436.0
32.56020 469.0
32.57520 470.0
32.59020 470.0
32.60520 433.0
32.62020 469.0
32.63520 422.0
32.65020 417.0
32.66520 487.0
32.68020 423.0
32.69520 405.0
32.71020 422.0
32.72520 406.0
32.74020 425.0
32.75520 374.0
32.77020 401.0
32.78520 378.0
32.80020 383.0
32.81520 382.0
32.83020 408.0
32.84520 386.0
32.86020 324.0
32.87520 359.0
32.89020 338.0
32.90520 309.0
32.92020 323.0
32.93520 321.0
32.95020 304.0
32.96520 273.0
32.98020 320.0
32.99520 246.0
33.01020 276.0
33.02520 292.0
33.04020 239.0
33.05520 271.0
33.07020 243.0
33.08520 242.0
33.10020 253.0
33.11520 246.0
33.13020 218.0
33.14520 192.0
33.16020 223.0
33.17520 207.0
33.19020 208.0
33.20520 200.0
33.22020 176.0
33.23520 190.0
33.25020 173.0
33.26520 189.0
33.28020 159.0
33.29520 170.0
33.31020 143.0
33.32520 155.0
33.34020 131.0
33.35520 127.0
33.37020 138.0
33.38520 124.0
33.40020 132.0
33.41520 127.0
33.43020 115.0
33.44520 121.0
33.46020 110.0
33.47520 114.0
33.49020 96.0
33.50520 118.0
33.52020 113.0
33.53520 104.0
33.55020 106.0
33.56520 113.0
33.58020 101.0
33.59520 92.0
33.61020 105.0
33.62520 87.0
33.64020 100.0
33.65520 88.0
33.67020 91.0
33.68520 91.0
33.70020 85.0
33.71520 89.0
33.73020 91.0
33.74520 87.0
33.76020 83.0
33.77520 65.0
33.79020 68.0
33.80520 99.0
33.82020 81.0
33.83520 90.0
33.85020 86.0
33.86520 86.0
33.88020 86.0
33.89520 79.0
33.91020 89.0
33.92520 78.0
33.94020 98.0
33.95520 75.0
33.97020 75.0
33.98520 91.0
34.00020 79.0
34.01520 90.0
34.03020 81.0
34.04520 74.0
34.06020 61.0
34.07520 77.0
34.09020 79.0
34.10520 71.0
34.12020 91.0
34.13520 68.0
34.15020 84.0
34.16520 82.0
34.18020 76.0
34.19520 87.0
34.21020 76.0
34.22520 71.0
34.24020 78.0
34.25520 70.0
34.27020 80.0
34.28520 83.0
34.30020 66.0
34.31520 78.0
34.33020 64.0
34.34520 85.0
34.36020 74.0
34.37520 71.0
34.39020 69.0
34.40520 72.0
34.42020 86.0
34.43520 82.0
34.45020 83.0
34.46520 73.0
34.48020 73.0
34.49520 79.0
34.51020 76.0
34.52520 72.0
34.54020 79.0