Folder: DataAnalysis/data/W6906m/XRD_2ThetaOmega

Note: data/W6906m/XRD_2ThetaOmega/W6906m_peaks.TXT
No.	Label	Pos. [°2Th.]	FWHM Left [°2Th.]	Area [cts*°2Th.]	Backgr.[cts]	d-spacing [Å]	Height [cts]	Shape Left	Status	Integral Breadth [°2Th.]	FWHM Right [°2Th.]	Shape Right	Obs. Lorentz B [°2Th.]	Obs. Gauss B [°2Th.]	Instr. Lorentz B [°2Th.]	Instr. Gauss B [°2Th.]	Crystallite Size [Å]	Micro Strain [%]	Crystallite Size only [Å]	Micro Strain only [%]
1	Cr2O3 3 0 0	65,000(2)	0,541(5)	208,08	222,84	1,43365	361(3)	0,00(4)	Included	0,576400	 	 	0,001410	0,576400	0,077471	0,065632	-1376,001000	0,392213	182,744200	0,392257
2	Al2O3 3 0 0	68,16836(1)	0,05960(4)	25582,59	252,99	1,37453	333623(191)	0,5357(8)	Included	0,076681	 	 	0,044082	0,045293	0,078472	0,066480	-3099,022000	-0,031380	33699,240000	0,002039

Note: README.md
# Methods
## RSM analysis

Check out [doc](documentation/RSM.md)

File: scan_2th-om_m_Cr2O3_55-75deg_PIXscan_4min_C7.xy
55.0019 121.0
55.0708 133.0
55.1397 127.0
55.2087 135.0
55.2776 131.0
55.3465 144.0
55.4155 127.0
55.4844 98.0
55.5533 134.0
55.6223 144.0
55.6912 151.0
55.7601 119.0
55.8291 126.0
55.898 123.0
55.9669 130.0
56.0359 127.0
56.1048 138.0
56.1737 149.0
56.2427 125.0
56.3116 117.0
56.3805 133.0
56.4495 133.0
56.5184 115.0
56.5873 131.0
56.6563 136.0
56.7252 152.0
56.7941 119.0
56.8631 150.0
56.932 144.0
57.0009 130.0
57.0699 144.0
57.1388 131.0
57.2077 123.0
57.2767 134.0
57.3456 157.0
57.4146 142.0
57.4835 129.0
57.5524 129.0
57.6214 146.0
57.6903 134.0
57.7592 131.0
57.8282 140.0
57.8971 137.0
57.966 136.0
58.035 173.0
58.1039 132.0
58.1728 128.0
58.2418 134.0
58.3107 136.0
58.3796 128.0
58.4486 113.0
58.5175 121.0
58.5864 162.0
58.6554 123.0
58.7243 126.0
58.7932 137.0
58.8622 143.0
58.9311 143.0
59 149.0
59.069 130.0
59.1379 129.0
59.2068 141.0
59.2758 129.0
59.3447 147.0
59.4136 128.0
59.4826 129.0
59.5515 146.0
59.6204 134.0
59.6894 145.0
59.7583 136.0
59.8272 153.0
59.8962 118.0
59.9651 120.0
60.034 141.0
60.103 124.0
60.1719 140.0
60.2408 148.0
60.3098 160.0
60.3787 159.0
60.4476 135.0
60.5166 128.0
60.5855 148.0
60.6544 157.0
60.7234 188.0
60.7923 439.0
60.8613 1213.0
60.9302 643.0
60.9991 221.0
61.0681 174.0
61.137 183.0
61.2059 152.0
61.2749 166.0
61.3438 172.0
61.4127 128.0
61.4817 142.0
61.5506 158.0
61.6195 144.0
61.6885 168.0
61.7574 142.0
61.8263 142.0
61.8953 145.0
61.9642 164.0
62.0331 135.0
62.1021 141.0
62.171 148.0
62.2399 157.0
62.3089 165.0
62.3778 132.0
62.4467 141.0
62.5157 148.0
62.5846 140.0
62.6535 147.0
62.7225 145.0
62.7914 165.0
62.8603 142.0
62.9293 144.0
62.9982 150.0
63.0671 135.0
63.1361 160.0
63.205 132.0
63.2739 176.0
63.3429 121.0
63.4118 182.0
63.4807 151.0
63.5497 136.0
63.6186 140.0
63.6875 169.0
63.7565 157.0
63.8254 142.0
63.8943 154.0
63.9633 178.0
64.0322 160.0
64.1011 183.0
64.1701 168.0
64.239 201.0
64.3079 206.0
64.3769 202.0
64.4458 205.0
64.5148 258.0
64.5837 312.0
64.6526 334.0
64.7216 374.0
64.7905 454.0
64.8594 587.0
64.9284 667.0
64.9973 733.0
65.0662 740.0
65.1352 736.0
65.2041 607.0
65.273 569.0
65.342 460.0
65.4109 409.0
65.4798 354.0
65.5488 322.0
65.6177 282.0
65.6866 231.0
65.7556 261.0
65.8245 203.0
65.8934 221.0
65.9624 225.0
66.0313 228.0
66.1002 242.0
66.1692 232.0
66.2381 274.0
66.307 284.0
66.376 225.0
66.4449 300.0
66.5138 314.0
66.5828 320.0
66.6517 336.0
66.7206 352.0
66.7896 356.0
66.8585 431.0
66.9274 409.0
66.9964 425.0
67.0653 464.0
67.1342 481.0
67.2032 550.0
67.2721 559.0
67.341 581.0
67.41 665.0
67.4789 692.0
67.5478 811.0
67.6168 922.0
67.6857 1129.0
67.7546 1745.0
67.8236 3145.0
67.8925 3368.0
67.9615 3523.0
68.0304 6900.0
68.0993 27599.0
68.1683 319401.0
68.2372 29605.0
68.3061 30211.0
68.3751 142722.0
68.444 11547.0
68.5129 4253.0
68.5819 2674.0
68.6508 1851.0
68.7197 1502.0
68.7887 1158.0
68.8576 930.0
68.9265 853.0
68.9955 735.0
69.0644 633.0
69.1333 646.0
69.2023 548.0
69.2712 463.0
69.3401 431.0
69.4091 371.0
69.478 320.0
69.5469 304.0
69.6159 300.0
69.6848 292.0
69.7537 272.0
69.8227 228.0
69.8916 230.0
69.9605 242.0
70.0295 236.0
70.0984 187.0
70.1673 197.0
70.2363 204.0
70.3052 216.0
70.3741 162.0
70.4431 218.0
70.512 174.0
70.5809 207.0
70.6499 154.0
70.7188 216.0
70.7877 171.0
70.8567 160.0
70.9256 183.0
70.9945 170.0
71.0635 162.0
71.1324 176.0
71.2013 169.0
71.2703 173.0
71.3392 184.0
71.4082 188.0
71.4771 205.0
71.546 167.0
71.615 175.0
71.6839 165.0
71.7528 172.0
71.8218 162.0
71.8907 148.0
71.9596 151.0
72.0286 167.0
72.0975 131.0
72.1664 153.0
72.2354 140.0
72.3043 164.0
72.3732 133.0
72.4422 137.0
72.5111 143.0
72.58 143.0
72.649 162.0
72.7179 169.0
72.7868 151.0
72.8558 163.0
72.9247 143.0
72.9936 169.0
73.0626 166.0
73.1315 159.0
73.2004 122.0
73.2694 120.0
73.3383 128.0
73.4072 157.0
73.4762 136.0
73.5451 146.0
73.614 157.0
73.683 129.0
73.7519 151.0
73.8208 152.0
73.8898 138.0
73.9587 148.0
74.0276 153.0
74.0966 163.0
74.1655 141.0
74.2344 132.0
74.3034 160.0
74.3723 132.0
74.4412 139.0
74.5102 140.0
74.5791 173.0
74.648 152.0
74.717 167.0
74.7859 149.0
74.8548 168.0
74.9238 162.0
74.9927 124.0
74.9976 148.0