Folder: DataAnalysis/data/W6928c/XRD_Omega

Note: data/W6928c/XRD_Omega/W6928c_omega_peaks.TXT
No.	Label	Pos. [記mega]	FWHM Left [記mega]	Area [cts*記mega]	Backgr.[cts]	d-spacing [魔	Height [cts]	Shape Left	Status	Integral Breadth [記mega]	FWHM Right [記mega]	Shape Right	Obs. Lorentz B [記mega]	Obs. Gauss B [記mega]	Instr. Lorentz B [記mega]	Instr. Gauss B [記mega]	Crystallite Size [魔	Micro Strain [%]	Crystallite Size only [魔	Micro Strain only [%]
1	Cr2O3 0 0 6	19,8114(5)	0,532(1)	860,94	29,04	 	1412(4)	0,221(4)	Included	0,609825	 	 	0,152682	0,507061	0,075192	0,063696	1156,343000	1,256905	161,936300	1,382570

Note: README.md
# Methods
## RSM analysis

Check out [doc](documentation/RSM.md)

File: film_c_scan_omega_4deg_step_0.005deg0_C1.xy
17.85270 33.0
17.86770 29.0
17.88270 29.0
17.89770 31.0
17.91270 21.0
17.92770 30.0
17.94270 39.0
17.95770 36.0
17.97270 30.0
17.98770 35.0
18.00270 35.0
18.01770 30.0
18.03270 33.0
18.04770 38.0
18.06270 46.0
18.07770 29.0
18.09270 33.0
18.10770 34.0
18.12270 29.0
18.13770 39.0
18.15270 32.0
18.16770 46.0
18.18270 30.0
18.19770 44.0
18.21270 36.0
18.22770 40.0
18.24270 29.0
18.25770 39.0
18.27270 28.0
18.28770 35.0
18.30270 37.0
18.31770 31.0
18.33270 42.0
18.34770 51.0
18.36270 26.0
18.37770 34.0
18.39270 48.0
18.40770 33.0
18.42270 36.0
18.43770 35.0
18.45270 41.0
18.46770 32.0
18.48270 31.0
18.49770 50.0
18.51270 35.0
18.52770 32.0
18.54270 32.0
18.55770 34.0
18.57270 31.0
18.58770 28.0
18.60270 41.0
18.61770 38.0
18.63270 39.0
18.64770 48.0
18.66270 41.0
18.67770 47.0
18.69270 44.0
18.70770 40.0
18.72270 47.0
18.73770 40.0
18.75270 45.0
18.76770 58.0
18.78270 54.0
18.79770 57.0
18.81270 57.0
18.82770 48.0
18.84270 52.0
18.85770 44.0
18.87270 56.0
18.88770 49.0
18.90270 44.0
18.91770 67.0
18.93270 66.0
18.94770 62.0
18.96270 86.0
18.97770 57.0
18.99270 81.0
19.00770 72.0
19.02270 81.0
19.03770 75.0
19.05270 82.0
19.06770 95.0
19.08270 94.0
19.09770 114.0
19.11270 92.0
19.12770 119.0
19.14270 119.0
19.15770 117.0
19.17270 141.0
19.18770 142.0
19.20270 146.0
19.21770 152.0
19.23270 154.0
19.24770 197.0
19.26270 191.0
19.27770 208.0
19.29270 248.0
19.30770 239.0
19.32270 272.0
19.33770 284.0
19.35270 312.0
19.36770 351.0
19.38270 389.0
19.39770 403.0
19.41270 415.0
19.42770 470.0
19.44270 517.0
19.45770 607.0
19.47270 650.0
19.48770 665.0
19.50270 761.0
19.51770 855.0
19.53270 889.0
19.54770 934.0
19.56270 1049.0
19.57770 1125.0
19.59270 1167.0
19.60770 1310.0
19.62270 1363.0
19.63770 1487.0
19.65270 1520.0
19.66770 1640.0
19.68270 1769.0
19.69770 1805.0
19.71270 1934.0
19.72770 1908.0
19.74270 1987.0
19.75770 2109.0
19.77270 2063.0
19.78770 2150.0
19.80270 2189.0
19.81770 2202.0
19.83270 2186.0
19.84770 2198.0
19.86270 2112.0
19.87770 2116.0
19.89270 2104.0
19.90770 2050.0
19.92270 1983.0
19.93770 1852.0
19.95270 1812.0
19.96770 1797.0
19.98270 1660.0
19.99770 1517.0
20.01270 1552.0
20.02770 1368.0
20.04270 1345.0
20.05770 1224.0
20.07270 1141.0
20.08770 1083.0
20.10270 966.0
20.11770 904.0
20.13270 867.0
20.14770 779.0
20.16270 723.0
20.17770 620.0
20.19270 545.0
20.20770 546.0
20.22270 516.0
20.23770 478.0
20.25270 439.0
20.26770 398.0
20.28270 368.0
20.29770 326.0
20.31270 304.0
20.32770 279.0
20.34270 268.0
20.35770 247.0
20.37270 233.0
20.38770 208.0
20.40270 192.0
20.41770 189.0
20.43270 171.0
20.44770 137.0
20.46270 152.0
20.47770 142.0
20.49270 138.0
20.50770 118.0
20.52270 117.0
20.53770 107.0
20.55270 103.0
20.56770 87.0
20.58270 91.0
20.59770 90.0
20.61270 71.0
20.62770 72.0
20.64270 71.0
20.65770 79.0
20.67270 71.0
20.68770 72.0
20.70270 54.0
20.71770 46.0
20.73270 67.0
20.74770 60.0
20.76270 64.0
20.77770 46.0
20.79270 42.0
20.80770 54.0
20.82270 39.0
20.83770 44.0
20.85270 51.0
20.86770 46.0
20.88270 46.0
20.89770 34.0
20.91270 64.0
20.92770 41.0
20.94270 42.0
20.95770 65.0
20.97270 43.0
20.98770 36.0
21.00270 41.0
21.01770 33.0
21.03270 45.0
21.04770 31.0
21.06270 26.0
21.07770 30.0
21.09270 37.0
21.10770 45.0
21.12270 41.0
21.13770 35.0
21.15270 28.0
21.16770 45.0
21.18270 34.0
21.19770 37.0
21.21270 42.0
21.22770 37.0
21.24270 29.0
21.25770 37.0
21.27270 29.0
21.28770 34.0
21.30270 28.0
21.31770 27.0
21.33270 17.0
21.34770 27.0
21.36270 30.0
21.37770 39.0
21.39270 28.0
21.40770 34.0
21.42270 25.0
21.43770 36.0
21.45270 36.0
21.46770 31.0
21.48270 35.0
21.49770 30.0
21.51270 34.0
21.52770 31.0
21.54270 24.0
21.55770 33.0
21.57270 24.0
21.58770 25.0
21.60270 26.0
21.61770 26.0
21.63270 33.0
21.64770 27.0
21.66270 18.0
21.67770 27.0
21.69270 29.0
21.70770 29.0
21.72270 22.0
21.73770 35.0
21.75270 30.0
21.76770 29.0
21.78270 24.0
21.79770 33.0
21.81270 25.0