Folder: DataAnalysis/data/W6928c/XRD_2ThetaOmega

Note: data/W6928c/XRD_2ThetaOmega/W6928c_peaks.TXT
No.	Label	Pos. [°2Th.]	FWHM Left [°2Th.]	Area [cts*°2Th.]	Backgr.[cts]	d-spacing [Å]	Height [cts]	Shape Left	Status	Integral Breadth [°2Th.]	FWHM Right [°2Th.]	Shape Right	Obs. Lorentz B [°2Th.]	Obs. Gauss B [°2Th.]	Instr. Lorentz B [°2Th.]	Instr. Gauss B [°2Th.]	Crystallite Size [Å]	Micro Strain [%]	Crystallite Size only [Å]	Micro Strain only [%]
1	Cr2O3 0 0 6	39,4690(3)	0,275(1)	822,41	58,63	2,28127	2390(9)	0,466(7)	Included	0,344156	 	 	0,173979	0,221984	0,073935	0,062636	937,371000	0,259033	333,557800	0,341960
2	Al2O3 0 0 6	41,60393(3)	0,03512(8)	1851,98	64,97	2,16901	41922(89)	0,477(3)	Included	0,044176	 	 	0,022835	0,028107	0,073977	0,062671	-1846,334000	-0,064335	29856,460000	0,003632

Note: README.md
# Methods
## RSM analysis

Check out [doc](documentation/RSM.md)

File: scan_2th-om_c_Cr2O3_35-45deg_PIXscan_4min_C1.xy
35.0021 49.0
35.0365 57.0
35.071 52.0
35.1055 46.0
35.1399 44.0
35.1744 57.0
35.2089 51.0
35.2433 63.0
35.2778 64.0
35.3123 51.0
35.3467 66.0
35.3812 42.0
35.4157 66.0
35.4501 52.0
35.4846 49.0
35.5191 64.0
35.5535 68.0
35.588 56.0
35.6225 59.0
35.6569 67.0
35.6914 58.0
35.7259 49.0
35.7603 57.0
35.7948 55.0
35.8293 49.0
35.8637 48.0
35.8982 43.0
35.9327 60.0
35.9671 53.0
36.0016 45.0
36.0361 54.0
36.0705 50.0
36.105 51.0
36.1395 45.0
36.1739 75.0
36.2084 56.0
36.2429 55.0
36.2773 55.0
36.3118 57.0
36.3463 61.0
36.3807 61.0
36.4152 61.0
36.4497 49.0
36.4841 53.0
36.5186 60.0
36.5531 48.0
36.5875 58.0
36.622 65.0
36.6565 47.0
36.6909 59.0
36.7254 59.0
36.7599 43.0
36.7943 47.0
36.8288 51.0
36.8633 80.0
36.8977 67.0
36.9322 61.0
36.9667 60.0
37.0011 43.0
37.0356 48.0
37.0701 74.0
37.1045 51.0
37.139 67.0
37.1735 49.0
37.2079 54.0
37.2424 65.0
37.2769 67.0
37.3114 68.0
37.3458 49.0
37.3803 72.0
37.4148 132.0
37.4492 113.0
37.4837 70.0
37.5182 70.0
37.5526 83.0
37.5871 56.0
37.6216 62.0
37.656 60.0
37.6905 64.0
37.725 50.0
37.7594 69.0
37.7939 72.0
37.8284 65.0
37.8628 57.0
37.8973 63.0
37.9318 67.0
37.9662 68.0
38.0007 66.0
38.0352 44.0
38.0696 63.0
38.1041 41.0
38.1386 62.0
38.173 60.0
38.2075 63.0
38.242 62.0
38.2764 73.0
38.3109 79.0
38.3454 60.0
38.3798 69.0
38.4143 76.0
38.4488 69.0
38.4832 69.0
38.5177 85.0
38.5522 93.0
38.5866 80.0
38.6211 91.0
38.6556 78.0
38.69 101.0
38.7245 91.0
38.759 114.0
38.7934 112.0
38.8279 113.0
38.8624 165.0
38.8968 159.0
38.9313 172.0
38.9658 178.0
39.0002 180.0
39.0347 232.0
39.0692 243.0
39.1036 283.0
39.1381 355.0
39.1726 445.0
39.207 579.0
39.2415 714.0
39.276 929.0
39.3104 1177.0
39.3449 1558.0
39.3794 1820.0
39.4138 2289.0
39.4483 2948.0
39.4828 3327.0
39.5172 3578.0
39.5517 3328.0
39.5862 2833.0
39.6206 2319.0
39.6551 1781.0
39.6896 1232.0
39.724 843.0
39.7585 569.0
39.793 410.0
39.8274 299.0
39.8619 203.0
39.8964 217.0
39.9308 201.0
39.9653 139.0
39.9998 142.0
40.0342 132.0
40.0687 97.0
40.1032 104.0
40.1376 90.0
40.1721 83.0
40.2066 84.0
40.241 81.0
40.2755 61.0
40.31 82.0
40.3444 84.0
40.3789 81.0
40.4134 94.0
40.4478 56.0
40.4823 65.0
40.5168 73.0
40.5512 77.0
40.5857 88.0
40.6202 84.0
40.6546 70.0
40.6891 87.0
40.7236 78.0
40.758 69.0
40.7925 86.0
40.827 89.0
40.8615 87.0
40.8959 76.0
40.9304 76.0
40.9649 95.0
40.9993 82.0
41.0338 75.0
41.0683 94.0
41.1027 102.0
41.1372 89.0
41.1717 114.0
41.2061 97.0
41.2406 120.0
41.2751 133.0
41.3095 134.0
41.344 159.0
41.3785 183.0
41.4129 433.0
41.4474 473.0
41.4819 426.0
41.5163 657.0
41.5508 1809.0
41.5853 20375.0
41.6197 24267.0
41.6542 2575.0
41.6887 7122.0
41.7231 16108.0
41.7576 1579.0
41.7921 593.0
41.8265 372.0
41.861 211.0
41.8955 194.0
41.9299 153.0
41.9644 149.0
41.9989 118.0
42.0333 108.0
42.0678 116.0
42.1023 99.0
42.1367 103.0
42.1712 87.0
42.2057 88.0
42.2401 98.0
42.2746 95.0
42.3091 68.0
42.3435 64.0
42.378 61.0
42.4125 69.0
42.4469 73.0
42.4814 78.0
42.5159 84.0
42.5503 77.0
42.5848 57.0
42.6193 68.0
42.6537 64.0
42.6882 77.0
42.7227 81.0
42.7571 66.0
42.7916 74.0
42.8261 68.0
42.8605 78.0
42.895 72.0
42.9295 52.0
42.9639 61.0
42.9984 63.0
43.0329 50.0
43.0673 65.0
43.1018 56.0
43.1363 61.0
43.1707 51.0
43.2052 54.0
43.2397 58.0
43.2741 61.0
43.3086 58.0
43.3431 67.0
43.3775 64.0
43.412 62.0
43.4465 50.0
43.4809 69.0
43.5154 59.0
43.5499 64.0
43.5843 61.0
43.6188 54.0
43.6533 62.0
43.6877 68.0
43.7222 80.0
43.7567 58.0
43.7911 63.0
43.8256 56.0
43.8601 51.0
43.8945 56.0
43.929 54.0
43.9635 79.0
43.9979 71.0
44.0324 70.0
44.0669 73.0
44.1013 80.0
44.1358 59.0
44.1703 95.0
44.2047 76.0
44.2392 96.0
44.2737 108.0
44.3081 109.0
44.3426 128.0
44.3771 138.0
44.4116 138.0
44.446 125.0
44.4805 141.0
44.515 93.0
44.5494 108.0
44.5839 98.0
44.6184 85.0
44.6528 79.0
44.6873 62.0
44.7218 90.0
44.7562 46.0
44.7907 70.0
44.8252 70.0
44.8596 81.0
44.8941 69.0
44.9286 71.0
44.963 61.0
44.9975 60.0