Folder: DataAnalysis/data/W6774c/XRD_2ThetaOmega

Note: data/W6774c/XRD_2ThetaOmega/W6774c_peaks.TXT
No.	Label	Pos. [°2Th.]	FWHM Left [°2Th.]	Area calc.	Assignment	h	k	l	Multiplicity	F obs.	F calc.	Area [cts*°2Th.]	Derivation	Backgr.[cts]	d-spacing [Å]	Height [cts]	K-A2 / K-A1 Ratio	Matched	Matched by	Rel. Int. [%]	Source	Status	Integral Breadth [°2Th.]
1	Cr2O3 0 0 6	39,2784(8)	0,310(3)	0,00	 	 	 	 	 	0,000000	0,000000	183,65	Pure KA1	15,60	2,29190	463(4)	0,500	False	 	6,25	Profile fitting	Included	0,396616
2	Al2O3 0 0 6	41,59356(8)	0,0532(2)	0,00	 	 	 	 	 	0,000000	0,000000	417,84	Pure KA1	18,56	2,16952	6716(27)	0,500	False	 	90,67	Profile fitting	Included	0,062220
3	Cr2O3 0 0 12	84,625(4)	0,72(2)	0,00	 	 	 	 	 	0,000000	0,000000	77,87	Pure KA1	11,32	1,14428	75(1)	0,500	False	 	1,01	Profile fitting	Included	1,036006
4	Al2O3 0 0 12	90,66027(9)	0,0718(3)	0,00	 	 	 	 	 	0,000000	0,000000	695,39	Pure KA1	22,79	1,08314	7406(26)	0,500	False	 	100,00	Profile fitting	Included	0,093889

Note: README.md
# Methods
## RSM analysis

Check out [doc](documentation/RSM.md)

File: W6774c_absolute_2th-om_10-130deg_PIXscan_17min_12.xy
10.0035 38.0
10.4072 32.0
10.811 21.0
11.2147 30.0
11.6185 27.0
12.0222 26.0
12.426 28.0
12.8298 25.0
13.2335 21.0
13.6373 23.0
14.041 23.0
14.4448 30.0
14.8485 29.0
15.2523 24.0
15.656 25.0
16.0598 16.0
16.4636 19.0
16.8673 13.0
17.2711 24.0
17.6748 20.0
18.0786 26.0
18.4823 14.0
18.8861 23.0
19.2899 15.0
19.6936 22.0
20.0974 15.0
20.5011 22.0
20.9049 19.0
21.3086 14.0
21.7124 16.0
22.1161 15.0
22.5199 17.0
22.9237 17.0
23.3274 15.0
23.7312 23.0
24.1349 16.0
24.5387 15.0
24.9424 14.0
25.3462 6.0
25.75 21.0
26.1537 6.0
26.5575 15.0
26.9612 13.0
27.365 18.0
27.7687 15.0
28.1725 10.0
28.5762 10.0
28.98 17.0
29.3838 17.0
29.7875 12.0
30.1913 20.0
30.595 10.0
30.9988 19.0
31.4025 23.0
31.8063 15.0
32.2101 23.0
32.6138 10.0
33.0176 15.0
33.4213 21.0
33.8251 19.0
34.2288 11.0
34.6326 11.0
35.0363 15.0
35.4401 23.0
35.8439 11.0
36.2476 10.0
36.6514 13.0
37.0551 17.0
37.4589 19.0
37.8626 19.0
38.2664 25.0
38.6702 29.0
39.0739 181.0
39.4777 299.0
39.8814 23.0
40.2852 23.0
40.6889 23.0
41.0927 30.0
41.4964 115.0
41.9002 61.0
42.304 26.0
42.7077 21.0
43.1115 17.0
43.5152 9.0
43.919 14.0
44.3227 29.0
44.7265 15.0
45.1303 12.0
45.534 17.0
45.9378 23.0
46.3415 21.0
46.7453 13.0
47.149 16.0
47.5528 16.0
47.9565 17.0
48.3603 18.0
48.7641 10.0
49.1678 11.0
49.5716 18.0
49.9753 15.0
50.3791 8.0
50.7828 13.0
51.1866 11.0
51.5903 12.0
51.9941 11.0
52.3979 12.0
52.8016 5.0
53.2054 15.0
53.6091 10.0
54.0129 11.0
54.4166 10.0
54.8204 7.0
55.2242 16.0
55.6279 15.0
56.0317 10.0
56.4354 12.0
56.8392 10.0
57.2429 13.0
57.6467 16.0
58.0504 13.0
58.4542 19.0
58.858 15.0
59.2617 9.0
59.6655 16.0
60.0692 18.0
60.473 20.0
60.8767 10.0
61.2805 20.0
61.6843 17.0
62.088 24.0
62.4918 9.0
62.8955 6.0
63.2993 15.0
63.703 19.0
64.1068 12.0
64.5105 20.0
64.9143 10.0
65.3181 12.0
65.7218 13.0
66.1256 13.0
66.5293 11.0
66.9331 12.0
67.3368 18.0
67.7406 13.0
68.1444 11.0
68.5481 13.0
68.9519 13.0
69.3556 12.0
69.7594 22.0
70.1631 12.0
70.5669 19.0
70.9706 14.0
71.3744 15.0
71.7782 12.0
72.1819 13.0
72.5857 12.0
72.9894 13.0
73.3932 17.0
73.7969 19.0
74.2007 12.0
74.6045 14.0
75.0082 10.0
75.412 13.0
75.8157 14.0
76.2195 8.0
76.6232 19.0
77.027 14.0
77.4307 18.0
77.8345 7.0
78.2383 16.0
78.642 9.0
79.0458 7.0
79.4495 13.0
79.8533 22.0
80.257 13.0
80.6608 7.0
81.0646 16.0
81.4683 21.0
81.8721 23.0
82.2758 17.0
82.6796 16.0
83.0833 19.0
83.4871 31.0
83.8908 28.0
84.2946 70.0
84.6984 117.0
85.1021 61.0
85.5059 30.0
85.9096 48.0
86.3134 20.0
86.7171 27.0
87.1209 13.0
87.5247 15.0
87.9284 19.0
88.3322 17.0
88.7359 17.0
89.1397 33.0
89.5434 28.0
89.9472 32.0
90.3509 66.0
90.7547 628.0
91.1585 112.0
91.5622 38.0
91.966 17.0
92.3697 27.0
92.7735 22.0
93.1772 19.0
93.581 12.0
93.9848 19.0
94.3885 14.0
94.7923 9.0
95.196 17.0
95.5998 14.0
96.0035 18.0
96.4073 11.0
96.811 15.0
97.2148 14.0
97.6186 14.0
98.0223 20.0
98.4261 12.0
98.8298 16.0
99.2336 19.0
99.6373 14.0
100.041 13.0
100.445 21.0
100.849 22.0
101.252 12.0
101.656 12.0
102.06 16.0
102.464 9.0
102.867 9.0
103.271 15.0
103.675 16.0
104.079 20.0
104.482 16.0
104.886 11.0
105.29 15.0
105.694 17.0
106.097 9.0
106.501 16.0
106.905 18.0
107.309 15.0
107.712 16.0
108.116 16.0
108.52 19.0
108.924 21.0
109.327 9.0
109.731 21.0
110.135 12.0
110.539 18.0
110.943 20.0
111.346 15.0
111.75 15.0
112.154 13.0
112.558 14.0
112.961 15.0
113.365 13.0
113.769 21.0
114.173 7.0
114.576 20.0
114.98 24.0
115.384 18.0
115.788 18.0
116.191 19.0
116.595 14.0
116.999 12.0
117.403 12.0
117.806 11.0
118.21 15.0
118.614 10.0
119.018 19.0
119.421 15.0
119.825 23.0
120.229 27.0
120.633 14.0
121.036 20.0
121.44 11.0
121.844 18.0
122.248 15.0
122.651 12.0
123.055 11.0
123.459 12.0
123.863 19.0
124.266 8.0
124.67 22.0
125.074 14.0
125.478 14.0
125.881 13.0
126.285 21.0
126.689 8.0
127.093 11.0
127.497 13.0
127.9 12.0
128.304 19.0
128.708 13.0
129.112 23.0
129.515 11.0
129.919 21.0
129.998 24.0