Folder: DataAnalysis/data/W6910r/XRD_2ThetaOmega

Note: data/W6910r/XRD_2ThetaOmega/W6910r_peaks.TXT
No.	Label	Pos. [°2Th.]	FWHM Left [°2Th.]	Area [cts*°2Th.]	Backgr.[cts]	d-spacing [Å]	Height [cts]	Shape Left	Status	Integral Breadth [°2Th.]	FWHM Right [°2Th.]	Shape Right	Obs. Lorentz B [°2Th.]	Obs. Gauss B [°2Th.]	Instr. Lorentz B [°2Th.]	Instr. Gauss B [°2Th.]	Crystallite Size [Å]	Micro Strain [%]	Crystallite Size only [Å]	Micro Strain only [%]
1	Cr2O3 0 2 4	49,8880(3)	0,382(1)	1533,13	185,83	1,82651	3242(8)	0,434(5)	Included	0,472839	 	 	0,223629	0,316718	0,074530	0,063140	652,926000	0,291152	236,217200	0,386617
2	Al2O3 0 2 4	52,48493(1)	0,05525(3)	28590,69	199,34	1,74209	418977(215)	0,4284(7)	Included	0,068239	 	 	0,031915	0,045979	0,074844	0,063407	-2292,459000	-0,038644	31117,470000	0,002799

Note: README.md
# Methods
## RSM analysis

Check out [doc](documentation/RSM.md)

File: scan_2th-om_r2_Cr2O3_45-55deg_PIXscan_5min_C10.xy
45.0025 104.0
45.0369 130.0
45.0714 104.0
45.1059 109.0
45.1403 130.0
45.1748 109.0
45.2093 123.0
45.2437 124.0
45.2782 82.0
45.3127 102.0
45.3471 108.0
45.3816 107.0
45.4161 95.0
45.4505 98.0
45.485 94.0
45.5195 96.0
45.5539 101.0
45.5884 103.0
45.6229 99.0
45.6573 103.0
45.6918 113.0
45.7263 104.0
45.7607 118.0
45.7952 118.0
45.8297 108.0
45.8641 118.0
45.8986 126.0
45.9331 109.0
45.9675 108.0
46.002 105.0
46.0365 105.0
46.0709 110.0
46.1054 110.0
46.1399 110.0
46.1743 98.0
46.2088 104.0
46.2433 84.0
46.2777 106.0
46.3122 98.0
46.3467 118.0
46.3811 99.0
46.4156 96.0
46.4501 103.0
46.4845 90.0
46.519 98.0
46.5535 108.0
46.5879 117.0
46.6224 98.0
46.6569 104.0
46.6913 145.0
46.7258 136.0
46.7603 135.0
46.7947 133.0
46.8292 115.0
46.8637 106.0
46.8981 120.0
46.9326 109.0
46.9671 151.0
47.0015 178.0
47.036 370.0
47.0705 1153.0
47.1049 1443.0
47.1394 587.0
47.1739 285.0
47.2083 193.0
47.2428 164.0
47.2773 136.0
47.3118 136.0
47.3462 107.0
47.3807 138.0
47.4152 119.0
47.4496 127.0
47.4841 134.0
47.5186 140.0
47.553 114.0
47.5875 130.0
47.622 124.0
47.6564 138.0
47.6909 133.0
47.7254 117.0
47.7598 130.0
47.7943 114.0
47.8288 132.0
47.8632 113.0
47.8977 103.0
47.9322 112.0
47.9666 118.0
48.0011 131.0
48.0356 141.0
48.07 119.0
48.1045 129.0
48.139 123.0
48.1734 126.0
48.2079 116.0
48.2424 120.0
48.2768 126.0
48.3113 117.0
48.3458 116.0
48.3802 147.0
48.4147 135.0
48.4492 134.0
48.4836 162.0
48.5181 144.0
48.5526 145.0
48.587 137.0
48.6215 133.0
48.656 136.0
48.6904 155.0
48.7249 156.0
48.7594 145.0
48.7938 156.0
48.8283 152.0
48.8628 195.0
48.8972 162.0
48.9317 170.0
48.9662 182.0
49.0006 212.0
49.0351 203.0
49.0696 196.0
49.104 199.0
49.1385 203.0
49.173 205.0
49.2074 230.0
49.2419 214.0
49.2764 291.0
49.3108 288.0
49.3453 310.0
49.3798 373.0
49.4142 392.0
49.4487 435.0
49.4832 542.0
49.5176 613.0
49.5521 746.0
49.5866 973.0
49.621 1236.0
49.6555 1605.0
49.69 2003.0
49.7244 2464.0
49.7589 3004.0
49.7934 3524.0
49.8278 4161.0
49.8623 4597.0
49.8968 4780.0
49.9312 4742.0
49.9657 4655.0
50.0002 4391.0
50.0346 3826.0
50.0691 3224.0
50.1036 2861.0
50.138 2318.0
50.1725 1973.0
50.207 1647.0
50.2414 1294.0
50.2759 1070.0
50.3104 919.0
50.3448 737.0
50.3793 635.0
50.4138 542.0
50.4482 475.0
50.4827 463.0
50.5172 362.0
50.5516 358.0
50.5861 333.0
50.6206 327.0
50.655 306.0
50.6895 310.0
50.724 276.0
50.7584 298.0
50.7929 272.0
50.8274 257.0
50.8619 277.0
50.8963 287.0
50.9308 258.0
50.9653 268.0
50.9997 325.0
51.0342 294.0
51.0687 285.0
51.1031 327.0
51.1376 326.0
51.1721 340.0
51.2065 307.0
51.241 352.0
51.2755 372.0
51.3099 375.0
51.3444 372.0
51.3789 431.0
51.4133 356.0
51.4478 446.0
51.4823 442.0
51.5167 480.0
51.5512 514.0
51.5857 499.0
51.6201 535.0
51.6546 577.0
51.6891 575.0
51.7235 610.0
51.758 593.0
51.7925 654.0
51.8269 669.0
51.8614 702.0
51.8959 717.0
51.9303 762.0
51.9648 862.0
51.9993 935.0
52.0337 1062.0
52.0682 1225.0
52.1027 1388.0
52.1371 1593.0
52.1716 2186.0
52.2061 3317.0
52.2405 4466.0
52.275 4642.0
52.3095 4474.0
52.3439 5638.0
52.3784 9600.0
52.4129 21280.0
52.4473 125537.0
52.4818 384606.0
52.5163 182149.0
52.5507 34408.0
52.5852 61826.0
52.6197 191786.0
52.6541 111970.0
52.6886 18104.0
52.7231 7436.0
52.7575 4785.0
52.792 3549.0
52.8265 2614.0
52.8609 2136.0
52.8954 1789.0
52.9299 1573.0
52.9643 1358.0
52.9988 1178.0
53.0333 1063.0
53.0677 917.0
53.1022 810.0
53.1367 776.0
53.1711 718.0
53.2056 678.0
53.2401 567.0
53.2745 521.0
53.309 546.0
53.3435 462.0
53.3779 451.0
53.4124 413.0
53.4469 410.0
53.4813 371.0
53.5158 349.0
53.5503 321.0
53.5847 317.0
53.6192 271.0
53.6537 298.0
53.6881 263.0
53.7226 213.0
53.7571 236.0
53.7915 213.0
53.826 196.0
53.8605 229.0
53.8949 198.0
53.9294 198.0
53.9639 166.0
53.9983 176.0
54.0328 163.0
54.0673 172.0
54.1017 180.0
54.1362 184.0
54.1707 183.0
54.2051 165.0
54.2396 156.0
54.2741 160.0
54.3085 139.0
54.343 157.0
54.3775 177.0
54.412 151.0
54.4464 155.0
54.4809 154.0
54.5154 162.0
54.5498 136.0
54.5843 145.0
54.6188 157.0
54.6532 163.0
54.6877 161.0
54.7222 154.0
54.7566 150.0
54.7911 148.0
54.8256 151.0
54.86 144.0
54.8945 147.0
54.929 143.0
54.9634 129.0
54.9979 135.0