Folder: DataAnalysis/data/W6910r/XRD_Omega

Note: data/W6910r/XRD_Omega/W6910r_omega_peaks.TXT
No.	Label	Pos. [記mega]	FWHM Left [記mega]	Area [cts*記mega]	Backgr.[cts]	d-spacing [魔	Height [cts]	Shape Left	Status	Integral Breadth [記mega]	FWHM Right [記mega]	Shape Right	Obs. Lorentz B [記mega]	Obs. Gauss B [記mega]	Instr. Lorentz B [記mega]	Instr. Gauss B [記mega]	Crystallite Size [魔	Micro Strain [%]	Crystallite Size only [魔	Micro Strain only [%]
1	Cr2O3 0 2 4	24,6689(6)	0,892(2)	1867,07	55,53	 	1790(4)	0,276(3)	Included	1,042765	 	 	0,322648	0,823394	0,074631	0,063222	364,311900	1,638178	91,654580	1,967151

Note: README.md
# Methods
## RSM analysis

Check out [doc](documentation/RSM.md)

File: scan_omega_4deg_step_0.005deg0_C10.xy
22.71370 58.0
22.72870 79.0
22.74370 73.0
22.75870 79.0
22.77370 64.0
22.78870 73.0
22.80370 65.0
22.81870 77.0
22.83370 77.0
22.84870 74.0
22.86370 76.0
22.87870 75.0
22.89370 86.0
22.90870 81.0
22.92370 77.0
22.93870 85.0
22.95370 98.0
22.96870 97.0
22.98370 82.0
22.99870 85.0
23.01370 96.0
23.02870 70.0
23.04370 80.0
23.05870 105.0
23.07370 78.0
23.08870 72.0
23.10370 101.0
23.11870 79.0
23.13370 87.0
23.14870 96.0
23.16370 76.0
23.17870 106.0
23.19370 105.0
23.20870 104.0
23.22370 108.0
23.23870 94.0
23.25370 100.0
23.26870 122.0
23.28370 106.0
23.29870 94.0
23.31370 106.0
23.32870 120.0
23.34370 120.0
23.35870 136.0
23.37370 126.0
23.38870 130.0
23.40370 132.0
23.41870 149.0
23.43370 145.0
23.44870 147.0
23.46370 146.0
23.47870 157.0
23.49370 138.0
23.50870 146.0
23.52370 146.0
23.53870 172.0
23.55370 172.0
23.56870 204.0
23.58370 185.0
23.59870 197.0
23.61370 205.0
23.62870 225.0
23.64370 206.0
23.65870 209.0
23.67370 230.0
23.68870 231.0
23.70370 264.0
23.71870 318.0
23.73370 271.0
23.74870 303.0
23.76370 314.0
23.77870 364.0
23.79370 333.0
23.80870 364.0
23.82370 375.0
23.83870 393.0
23.85370 400.0
23.86870 428.0
23.88370 438.0
23.89870 477.0
23.91370 460.0
23.92870 492.0
23.94370 520.0
23.95870 553.0
23.97370 564.0
23.98870 626.0
24.00370 599.0
24.01870 669.0
24.03370 713.0
24.04870 717.0
24.06370 768.0
24.07870 820.0
24.09370 885.0
24.10870 886.0
24.12370 976.0
24.13870 970.0
24.15370 1024.0
24.16870 1096.0
24.18370 1158.0
24.19870 1176.0
24.21370 1213.0
24.22870 1265.0
24.24370 1394.0
24.25870 1386.0
24.27370 1428.0
24.28870 1547.0
24.30370 1530.0
24.31870 1571.0
24.33370 1633.0
24.34870 1809.0
24.36370 1853.0
24.37870 1914.0
24.39370 1954.0
24.40870 2027.0
24.42370 2188.0
24.43870 2156.0
24.45370 2158.0
24.46870 2372.0
24.48370 2365.0
24.49870 2343.0
24.51370 2420.0
24.52870 2437.0
24.54370 2519.0
24.55870 2690.0
24.57370 2723.0
24.58870 2578.0
24.60370 2693.0
24.61870 2785.0
24.63370 2738.0
24.64870 2842.0
24.66370 2804.0
24.67870 2809.0
24.69370 2946.0
24.70870 2884.0
24.72370 2792.0
24.73870 2688.0
24.75370 2728.0
24.76870 2778.0
24.78370 2790.0
24.79870 2664.0
24.81370 2642.0
24.82870 2655.0
24.84370 2489.0
24.85870 2609.0
24.87370 2550.0
24.88870 2471.0
24.90370 2389.0
24.91870 2324.0
24.93370 2170.0
24.94870 2203.0
24.96370 2096.0
24.97870 2000.0
24.99370 1911.0
25.00870 1922.0
25.02370 1841.0
25.03870 1674.0
25.05370 1639.0
25.06870 1585.0
25.08370 1556.0
25.09870 1501.0
25.11370 1445.0
25.12870 1360.0
25.14370 1372.0
25.15870 1239.0
25.17370 1196.0
25.18870 1187.0
25.20370 1125.0
25.21870 1045.0
25.23370 974.0
25.24870 928.0
25.26370 894.0
25.27870 916.0
25.29370 853.0
25.30870 785.0
25.32370 696.0
25.33870 776.0
25.35370 682.0
25.36870 635.0
25.38370 637.0
25.39870 580.0
25.41370 560.0
25.42870 515.0
25.44370 485.0
25.45870 497.0
25.47370 481.0
25.48870 435.0
25.50370 419.0
25.51870 396.0
25.53370 379.0
25.54870 330.0
25.56370 322.0
25.57870 355.0
25.59370 325.0
25.60870 295.0
25.62370 279.0
25.63870 265.0
25.65370 264.0
25.66870 250.0
25.68370 250.0
25.69870 258.0
25.71370 240.0
25.72870 218.0
25.74370 204.0
25.75870 183.0
25.77370 192.0
25.78870 206.0
25.80370 176.0
25.81870 164.0
25.83370 169.0
25.84870 157.0
25.86370 147.0
25.87870 143.0
25.89370 146.0
25.90870 125.0
25.92370 133.0
25.93870 129.0
25.95370 141.0
25.96870 125.0
25.98370 118.0
25.99870 114.0
26.01370 110.0
26.02870 121.0
26.04370 104.0
26.05870 124.0
26.07370 112.0
26.08870 95.0
26.10370 102.0
26.11870 101.0
26.13370 105.0
26.14870 112.0
26.16370 81.0
26.17870 99.0
26.19370 87.0
26.20870 93.0
26.22370 85.0
26.23870 79.0
26.25370 82.0
26.26870 87.0
26.28370 76.0
26.29870 72.0
26.31370 76.0
26.32870 69.0
26.34370 85.0
26.35870 79.0
26.37370 69.0
26.38870 73.0
26.40370 83.0
26.41870 84.0
26.43370 68.0
26.44870 53.0
26.46370 80.0
26.47870 64.0
26.49370 71.0
26.50870 73.0
26.52370 62.0
26.53870 79.0
26.55370 71.0
26.56870 73.0
26.58370 59.0
26.59870 71.0
26.61370 69.0
26.62870 58.0
26.64370 71.0
26.65870 68.0
26.67370 73.0