Folder: DataAnalysis/data/W6901r/XRD_Omega

Note: data/W6901r/XRD_Omega/W6901r_omega_peaks.TXT
No.	Label	Pos. [記mega]	FWHM Left [記mega]	Area [cts*記mega]	Backgr.[cts]	d-spacing [魔	Height [cts]	Shape Left	Status	Integral Breadth [記mega]	FWHM Right [記mega]	Shape Right	Obs. Lorentz B [記mega]	Obs. Gauss B [記mega]	Instr. Lorentz B [記mega]	Instr. Gauss B [記mega]	Crystallite Size [魔	Micro Strain [%]	Crystallite Size only [魔	Micro Strain only [%]
1	Cr2O3 0 2 4	25,006(3)	0,72(1)	165,05	65,06	 	145(2)	1,00(2)	Included	1,134822	 	 	1,129498	0,019165	0,074598	0,063194	85,708600	-0,118489	85,707830	2,075712

Note: README.md
# Methods
## RSM analysis

Check out [doc](documentation/RSM.md)

File: scan_omega_4deg_step_0.005deg0_C2.xy
23.05100 70.0
23.06600 70.0
23.08100 54.0
23.09600 65.0
23.11100 67.0
23.12600 59.0
23.14100 66.0
23.15600 79.0
23.17100 69.0
23.18600 63.0
23.20100 66.0
23.21600 65.0
23.23100 73.0
23.24600 53.0
23.26100 85.0
23.27600 70.0
23.29100 56.0
23.30600 73.0
23.32100 50.0
23.33600 77.0
23.35100 66.0
23.36600 77.0
23.38100 88.0
23.39600 75.0
23.41100 75.0
23.42600 62.0
23.44100 60.0
23.45600 72.0
23.47100 70.0
23.48600 72.0
23.50100 75.0
23.51600 77.0
23.53100 76.0
23.54600 63.0
23.56100 69.0
23.57600 83.0
23.59100 80.0
23.60600 72.0
23.62100 75.0
23.63600 81.0
23.65100 87.0
23.66600 77.0
23.68100 71.0
23.69600 68.0
23.71100 72.0
23.72600 79.0
23.74100 90.0
23.75600 69.0
23.77100 79.0
23.78600 80.0
23.80100 99.0
23.81600 87.0
23.83100 83.0
23.84600 101.0
23.86100 96.0
23.87600 74.0
23.89100 93.0
23.90600 100.0
23.92100 82.0
23.93600 88.0
23.95100 85.0
23.96600 92.0
23.98100 92.0
23.99600 101.0
24.01100 86.0
24.02600 83.0
24.04100 122.0
24.05600 97.0
24.07100 122.0
24.08600 98.0
24.10100 134.0
24.11600 114.0
24.13100 99.0
24.14600 137.0
24.16100 76.0
24.17600 98.0
24.19100 133.0
24.20600 128.0
24.22100 116.0
24.23600 112.0
24.25100 110.0
24.26600 107.0
24.28100 126.0
24.29600 121.0
24.31100 124.0
24.32600 138.0
24.34100 171.0
24.35600 120.0
24.37100 150.0
24.38600 152.0
24.40100 156.0
24.41600 151.0
24.43100 132.0
24.44600 173.0
24.46100 137.0
24.47600 170.0
24.49100 165.0
24.50600 131.0
24.52100 168.0
24.53600 145.0
24.55100 162.0
24.56600 143.0
24.58100 175.0
24.59600 152.0
24.61100 172.0
24.62600 176.0
24.64100 158.0
24.65600 177.0
24.67100 182.0
24.68600 177.0
24.70100 183.0
24.71600 187.0
24.73100 179.0
24.74600 162.0
24.76100 196.0
24.77600 176.0
24.79100 178.0
24.80600 186.0
24.82100 213.0
24.83600 209.0
24.85100 205.0
24.86600 219.0
24.88100 189.0
24.89600 235.0
24.91100 262.0
24.92600 276.0
24.94100 300.0
24.95600 311.0
24.97100 307.0
24.98600 293.0
25.00100 295.0
25.01600 316.0
25.03100 295.0
25.04600 290.0
25.06100 270.0
25.07600 307.0
25.09100 294.0
25.10600 302.0
25.12100 285.0
25.13600 259.0
25.15100 265.0
25.16600 298.0
25.18100 255.0
25.19600 213.0
25.21100 211.0
25.22600 196.0
25.24100 219.0
25.25600 205.0
25.27100 198.0
25.28600 195.0
25.30100 208.0
25.31600 209.0
25.33100 198.0
25.34600 168.0
25.36100 189.0
25.37600 195.0
25.39100 171.0
25.40600 174.0
25.42100 165.0
25.43600 162.0
25.45100 156.0
25.46600 158.0
25.48100 158.0
25.49600 148.0
25.51100 133.0
25.52600 164.0
25.54100 138.0
25.55600 151.0
25.57100 149.0
25.58600 143.0
25.60100 142.0
25.61600 137.0
25.63100 118.0
25.64600 121.0
25.66100 137.0
25.67600 137.0
25.69100 130.0
25.70600 118.0
25.72100 116.0
25.73600 115.0
25.75100 104.0
25.76600 115.0
25.78100 115.0
25.79600 128.0
25.81100 107.0
25.82600 103.0
25.84100 98.0
25.85600 112.0
25.87100 109.0
25.88600 131.0
25.90100 111.0
25.91600 106.0
25.93100 107.0
25.94600 113.0
25.96100 101.0
25.97600 80.0
25.99100 121.0
26.00600 92.0
26.02100 99.0
26.03600 90.0
26.05100 79.0
26.06600 87.0
26.08100 94.0
26.09600 74.0
26.11100 99.0
26.12600 98.0
26.14100 80.0
26.15600 72.0
26.17100 82.0
26.18600 81.0
26.20100 87.0
26.21600 86.0
26.23100 96.0
26.24600 67.0
26.26100 80.0
26.27600 87.0
26.29100 82.0
26.30600 79.0
26.32100 84.0
26.33600 73.0
26.35100 69.0
26.36600 76.0
26.38100 87.0
26.39600 65.0
26.41100 76.0
26.42600 75.0
26.44100 71.0
26.45600 85.0
26.47100 72.0
26.48600 69.0
26.50100 73.0
26.51600 60.0
26.53100 54.0
26.54600 56.0
26.56100 59.0
26.57600 57.0
26.59100 64.0
26.60600 74.0
26.62100 54.0
26.63600 62.0
26.65100 74.0
26.66600 77.0
26.68100 63.0
26.69600 60.0
26.71100 59.0
26.72600 60.0
26.74100 71.0
26.75600 55.0
26.77100 55.0
26.78600 56.0
26.80100 76.0
26.81600 52.0
26.83100 57.0
26.84600 55.0
26.86100 77.0
26.87600 54.0
26.89100 60.0
26.90600 42.0
26.92100 57.0
26.93600 63.0
26.95100 50.0
26.96600 54.0
26.98100 48.0
26.99600 65.0
27.01100 60.0