Folder: DataAnalysis/data/W6901r/XRD_2ThetaOmega

Note: data/W6901r/XRD_2ThetaOmega/W6901r_peaks.TXT
No.	Label	Pos. [°2Th.]	FWHM Left [°2Th.]	Area [cts*°2Th.]	Backgr.[cts]	d-spacing [Å]	Height [cts]	Shape Left	Status	Integral Breadth [°2Th.]	FWHM Right [°2Th.]	Shape Right	Obs. Lorentz B [°2Th.]	Obs. Gauss B [°2Th.]	Instr. Lorentz B [°2Th.]	Instr. Gauss B [°2Th.]	Crystallite Size [Å]	Micro Strain [%]	Crystallite Size only [Å]	Micro Strain only [%]
1	Cr2O3 0 2 4	49,756(3)	0,82(3)	239,26	158,45	1,83105	238(16)	0,4(2)	Included	1,003841	 	 	0,452257	0,689321	0,074516	0,063128	257,580000	0,645889	102,772600	0,890828
2	Al2O3 0 2 4	52,50207(1)	0,05488(3)	28145,28	182,57	1,74156	422039(216)	0,3847(7)	Included	0,066689	 	 	0,028203	0,047165	0,074846	0,063409	-2110,053000	-0,037497	31119,770000	0,002798

Note: README.md
# Methods
## RSM analysis

Check out [doc](documentation/RSM.md)

File: scan_2th-om_r2_Cr2O3_45-55deg_PIXscan_5min_C2.xy
45.0025 111.0
45.0369 103.0
45.0714 102.0
45.1059 93.0
45.1403 116.0
45.1748 108.0
45.2093 133.0
45.2437 101.0
45.2782 127.0
45.3127 116.0
45.3471 110.0
45.3816 95.0
45.4161 125.0
45.4505 119.0
45.485 97.0
45.5195 98.0
45.5539 104.0
45.5884 110.0
45.6229 84.0
45.6573 100.0
45.6918 105.0
45.7263 106.0
45.7607 96.0
45.7952 101.0
45.8297 108.0
45.8641 89.0
45.8986 98.0
45.9331 109.0
45.9675 106.0
46.002 112.0
46.0365 99.0
46.0709 98.0
46.1054 102.0
46.1399 116.0
46.1743 84.0
46.2088 90.0
46.2433 97.0
46.2777 105.0
46.3122 119.0
46.3467 82.0
46.3811 111.0
46.4156 113.0
46.4501 112.0
46.4845 98.0
46.519 108.0
46.5535 93.0
46.5879 93.0
46.6224 110.0
46.6569 96.0
46.6913 100.0
46.7258 115.0
46.7603 111.0
46.7947 96.0
46.8292 111.0
46.8637 134.0
46.8981 101.0
46.9326 105.0
46.9671 138.0
47.0015 151.0
47.036 195.0
47.0705 577.0
47.1049 1469.0
47.1394 1053.0
47.1739 411.0
47.2083 212.0
47.2428 151.0
47.2773 160.0
47.3118 131.0
47.3462 139.0
47.3807 140.0
47.4152 128.0
47.4496 128.0
47.4841 133.0
47.5186 125.0
47.553 134.0
47.5875 124.0
47.622 129.0
47.6564 134.0
47.6909 119.0
47.7254 118.0
47.7598 139.0
47.7943 99.0
47.8288 127.0
47.8632 127.0
47.8977 122.0
47.9322 109.0
47.9666 125.0
48.0011 131.0
48.0356 127.0
48.07 120.0
48.1045 128.0
48.139 109.0
48.1734 116.0
48.2079 127.0
48.2424 118.0
48.2768 148.0
48.3113 132.0
48.3458 134.0
48.3802 136.0
48.4147 151.0
48.4492 119.0
48.4836 123.0
48.5181 120.0
48.5526 115.0
48.587 138.0
48.6215 134.0
48.656 130.0
48.6904 130.0
48.7249 155.0
48.7594 151.0
48.7938 151.0
48.8283 168.0
48.8628 149.0
48.8972 149.0
48.9317 155.0
48.9662 146.0
49.0006 162.0
49.0351 171.0
49.0696 151.0
49.104 153.0
49.1385 179.0
49.173 196.0
49.2074 188.0
49.2419 189.0
49.2764 194.0
49.3108 209.0
49.3453 216.0
49.3798 255.0
49.4142 283.0
49.4487 335.0
49.4832 361.0
49.5176 366.0
49.5521 366.0
49.5866 388.0
49.621 389.0
49.6555 420.0
49.69 432.0
49.7244 428.0
49.7589 471.0
49.7934 445.0
49.8278 441.0
49.8623 442.0
49.8968 389.0
49.9312 439.0
49.9657 394.0
50.0002 382.0
50.0346 333.0
50.0691 342.0
50.1036 337.0
50.138 329.0
50.1725 329.0
50.207 290.0
50.2414 234.0
50.2759 274.0
50.3104 214.0
50.3448 221.0
50.3793 218.0
50.4138 222.0
50.4482 186.0
50.4827 187.0
50.5172 208.0
50.5516 216.0
50.5861 192.0
50.6206 182.0
50.655 177.0
50.6895 216.0
50.724 193.0
50.7584 260.0
50.7929 197.0
50.8274 223.0
50.8619 225.0
50.8963 218.0
50.9308 266.0
50.9653 218.0
50.9997 272.0
51.0342 266.0
51.0687 259.0
51.1031 276.0
51.1376 304.0
51.1721 313.0
51.2065 349.0
51.241 348.0
51.2755 347.0
51.3099 359.0
51.3444 380.0
51.3789 391.0
51.4133 416.0
51.4478 484.0
51.4823 473.0
51.5167 465.0
51.5512 428.0
51.5857 492.0
51.6201 519.0
51.6546 552.0
51.6891 616.0
51.7235 574.0
51.758 581.0
51.7925 652.0
51.8269 674.0
51.8614 715.0
51.8959 755.0
51.9303 817.0
51.9648 815.0
51.9993 884.0
52.0337 1002.0
52.0682 1132.0
52.1027 1261.0
52.1371 1534.0
52.1716 1786.0
52.2061 2614.0
52.2405 3884.0
52.275 4783.0
52.3095 4611.0
52.3439 4965.0
52.3784 6972.0
52.4129 13060.0
52.4473 40318.0
52.4818 320419.0
52.5163 368664.0
52.5507 61623.0
52.5852 31414.0
52.6197 149680.0
52.6541 188144.0
52.6886 38866.0
52.7231 10357.0
52.7575 5930.0
52.792 3949.0
52.8265 3072.0
52.8609 2532.0
52.8954 1947.0
52.9299 1699.0
52.9643 1454.0
52.9988 1229.0
53.0333 1098.0
53.0677 972.0
53.1022 914.0
53.1367 830.0
53.1711 752.0
53.2056 664.0
53.2401 644.0
53.2745 586.0
53.309 528.0
53.3435 537.0
53.3779 502.0
53.4124 490.0
53.4469 456.0
53.4813 417.0
53.5158 358.0
53.5503 339.0
53.5847 334.0
53.6192 291.0
53.6537 286.0
53.6881 302.0
53.7226 227.0
53.7571 221.0
53.7915 233.0
53.826 213.0
53.8605 199.0
53.8949 208.0
53.9294 215.0
53.9639 217.0
53.9983 189.0
54.0328 195.0
54.0673 196.0
54.1017 170.0
54.1362 170.0
54.1707 180.0
54.2051 164.0
54.2396 170.0
54.2741 174.0
54.3085 167.0
54.343 156.0
54.3775 161.0
54.412 124.0
54.4464 135.0
54.4809 145.0
54.5154 137.0
54.5498 148.0
54.5843 159.0
54.6188 133.0
54.6532 163.0
54.6877 150.0
54.7222 139.0
54.7566 170.0
54.7911 155.0
54.8256 164.0
54.86 135.0
54.8945 150.0
54.929 136.0
54.9634 127.0
54.9979 147.0