Folder: DataAnalysis/data/W6901m/XRD_Omega

Note: data/W6901m/XRD_Omega/W6901m_omega_peaks.TXT
No.	Label	Pos. [記mega]	FWHM Left [記mega]	Area [cts*記mega]	Backgr.[cts]	d-spacing [魔	Height [cts]	Shape Left	Status	Integral Breadth [記mega]	FWHM Right [記mega]	Shape Right	Obs. Lorentz B [記mega]	Obs. Gauss B [記mega]	Instr. Lorentz B [記mega]	Instr. Gauss B [記mega]	Crystallite Size [魔	Micro Strain [%]	Crystallite Size only [魔	Micro Strain only [%]
1	Cr2O3 3 0 0	31,569(3)	0,845(8)	185,31	78,05	 	173(1)	0,49(2)	Included	1,068730	 	 	0,567560	0,668234	0,074105	0,062778	185,891000	1,026888	90,490690	1,564664

Note: README.md
# Methods
## RSM analysis

Check out [doc](documentation/RSM.md)

File: scan_omega_4deg_step_0.005deg0_C2_2.xy
29.55410 75.0
29.56910 93.0
29.58410 82.0
29.59910 77.0
29.61410 84.0
29.62910 77.0
29.64410 85.0
29.65910 64.0
29.67410 82.0
29.68910 90.0
29.70410 82.0
29.71910 89.0
29.73410 88.0
29.74910 77.0
29.76410 77.0
29.77910 86.0
29.79410 89.0
29.80910 86.0
29.82410 83.0
29.83910 77.0
29.85410 88.0
29.86910 79.0
29.88410 96.0
29.89910 81.0
29.91410 76.0
29.92910 83.0
29.94410 78.0
29.95910 71.0
29.97410 99.0
29.98910 82.0
30.00410 85.0
30.01910 72.0
30.03410 81.0
30.04910 80.0
30.06410 95.0
30.07910 84.0
30.09410 81.0
30.10910 83.0
30.12410 90.0
30.13910 88.0
30.15410 84.0
30.16910 107.0
30.18410 112.0
30.19910 87.0
30.21410 86.0
30.22910 80.0
30.24410 84.0
30.25910 93.0
30.27410 75.0
30.28910 107.0
30.30410 83.0
30.31910 70.0
30.33410 94.0
30.34910 92.0
30.36410 84.0
30.37910 91.0
30.39410 76.0
30.40910 113.0
30.42410 80.0
30.43910 78.0
30.45410 86.0
30.46910 79.0
30.48410 95.0
30.49910 90.0
30.51410 94.0
30.52910 93.0
30.54410 81.0
30.55910 91.0
30.57410 89.0
30.58910 96.0
30.60410 96.0
30.61910 92.0
30.63410 108.0
30.64910 95.0
30.66410 90.0
30.67910 112.0
30.69410 94.0
30.70910 93.0
30.72410 117.0
30.73910 91.0
30.75410 104.0
30.76910 113.0
30.78410 110.0
30.79910 106.0
30.81410 111.0
30.82910 117.0
30.84410 104.0
30.85910 123.0
30.87410 101.0
30.88910 131.0
30.90410 120.0
30.91910 145.0
30.93410 120.0
30.94910 123.0
30.96410 113.0
30.97910 114.0
30.99410 150.0
31.00910 153.0
31.02410 136.0
31.03910 146.0
31.05410 148.0
31.06910 164.0
31.08410 181.0
31.09910 166.0
31.11410 175.0
31.12910 198.0
31.14410 205.0
31.15910 162.0
31.17410 198.0
31.18910 201.0
31.20410 205.0
31.21910 206.0
31.23410 224.0
31.24910 227.0
31.26410 243.0
31.27910 258.0
31.29410 264.0
31.30910 305.0
31.32410 291.0
31.33910 325.0
31.35410 295.0
31.36910 319.0
31.38410 320.0
31.39910 346.0
31.41410 374.0
31.42910 357.0
31.44410 352.0
31.45910 341.0
31.47410 324.0
31.48910 335.0
31.50410 361.0
31.51910 366.0
31.53410 367.0
31.54910 308.0
31.56410 380.0
31.57910 363.0
31.59410 337.0
31.60910 359.0
31.62410 347.0
31.63910 340.0
31.65410 324.0
31.66910 335.0
31.68410 294.0
31.69910 336.0
31.71410 293.0
31.72910 310.0
31.74410 287.0
31.75910 295.0
31.77410 268.0
31.78910 283.0
31.80410 262.0
31.81910 252.0
31.83410 229.0
31.84910 268.0
31.86410 238.0
31.87910 221.0
31.89410 249.0
31.90910 226.0
31.92410 240.0
31.93910 235.0
31.95410 199.0
31.96910 233.0
31.98410 191.0
31.99910 208.0
32.01410 196.0
32.02910 193.0
32.04410 188.0
32.05910 200.0
32.07410 224.0
32.08910 211.0
32.10410 216.0
32.11910 187.0
32.13410 197.0
32.14910 203.0
32.16410 185.0
32.17910 208.0
32.19410 211.0
32.20910 179.0
32.22410 170.0
32.23910 153.0
32.25410 187.0
32.26910 174.0
32.28410 197.0
32.29910 159.0
32.31410 160.0
32.32910 144.0
32.34410 141.0
32.35910 137.0
32.37410 142.0
32.38910 120.0
32.40410 105.0
32.41910 123.0
32.43410 136.0
32.44910 112.0
32.46410 103.0
32.47910 110.0
32.49410 122.0
32.50910 98.0
32.52410 102.0
32.53910 100.0
32.55410 115.0
32.56910 112.0
32.58410 104.0
32.59910 102.0
32.61410 114.0
32.62910 100.0
32.64410 84.0
32.65910 111.0
32.67410 112.0
32.68910 95.0
32.70410 99.0
32.71910 99.0
32.73410 104.0
32.74910 86.0
32.76410 100.0
32.77910 99.0
32.79410 102.0
32.80910 86.0
32.82410 81.0
32.83910 101.0
32.85410 92.0
32.86910 110.0
32.88410 77.0
32.89910 87.0
32.91410 98.0
32.92910 93.0
32.94410 78.0
32.95910 88.0
32.97410 91.0
32.98910 91.0
33.00410 76.0
33.01910 66.0
33.03410 97.0
33.04910 102.0
33.06410 79.0
33.07910 84.0
33.09410 75.0
33.10910 76.0
33.12410 75.0
33.13910 78.0
33.15410 86.0
33.16910 67.0
33.18410 67.0
33.19910 95.0
33.21410 94.0
33.22910 92.0
33.24410 78.0
33.25910 73.0
33.27410 68.0
33.28910 70.0
33.30410 72.0
33.31910 105.0
33.33410 89.0
33.34910 72.0
33.36410 79.0
33.37910 69.0
33.39410 72.0
33.40910 74.0
33.42410 97.0
33.43910 79.0
33.45410 84.0
33.46910 77.0
33.48410 64.0
33.49910 83.0
33.51410 81.0