Folder: DataAnalysis/data/W6901m/XRD_2ThetaOmega

Note: data/W6901m/XRD_2ThetaOmega/W6901m_peaks.TXT
No.	Label	Pos. [°2Th.]	FWHM Left [°2Th.]	Area [cts*°2Th.]	Backgr.[cts]	d-spacing [Å]	Height [cts]	Shape Left	Status	Integral Breadth [°2Th.]	FWHM Right [°2Th.]	Shape Right	Obs. Lorentz B [°2Th.]	Obs. Gauss B [°2Th.]	Instr. Lorentz B [°2Th.]	Instr. Gauss B [°2Th.]	Crystallite Size [Å]	Micro Strain [%]	Crystallite Size only [Å]	Micro Strain only [%]
1	Cr2O3 3 0 0	64,53(1)	0,8(2)	84,28	205,01	1,44301	105(55)	0(1)	Included	0,806045	 	 	0,001972	0,806045	0,077334	0,065516	-1385,124000	0,555281	129,920500	0,555343
2	Al2O3 3 0 0	68,16375(1)	0,05994(4)	27588,47	266,96	1,37461	349848(198)	0,5921(8)	Included	0,078858	 	 	0,049651	0,043049	0,078471	0,066479	-3697,991000	-0,032669	33698,330000	0,002040

Note: README.md
# Methods
## RSM analysis

Check out [doc](documentation/RSM.md)

File: scan_2th-om_m_Cr2O3_55-75deg_PIXscan_4min_C2.xy
55.0019 139.0
55.0708 140.0
55.1397 123.0
55.2087 134.0
55.2776 144.0
55.3465 113.0
55.4155 132.0
55.4844 122.0
55.5533 124.0
55.6223 159.0
55.6912 133.0
55.7601 131.0
55.8291 127.0
55.898 149.0
55.9669 143.0
56.0359 138.0
56.1048 122.0
56.1737 137.0
56.2427 138.0
56.3116 143.0
56.3805 130.0
56.4495 123.0
56.5184 158.0
56.5873 142.0
56.6563 140.0
56.7252 147.0
56.7941 143.0
56.8631 123.0
56.932 135.0
57.0009 143.0
57.0699 123.0
57.1388 130.0
57.2077 138.0
57.2767 141.0
57.3456 138.0
57.4146 124.0
57.4835 146.0
57.5524 145.0
57.6214 151.0
57.6903 131.0
57.7592 129.0
57.8282 137.0
57.8971 141.0
57.966 132.0
58.035 125.0
58.1039 135.0
58.1728 137.0
58.2418 130.0
58.3107 143.0
58.3796 126.0
58.4486 136.0
58.5175 144.0
58.5864 127.0
58.6554 114.0
58.7243 139.0
58.7932 129.0
58.8622 116.0
58.9311 119.0
59 126.0
59.069 138.0
59.1379 135.0
59.2068 166.0
59.2758 136.0
59.3447 127.0
59.4136 143.0
59.4826 129.0
59.5515 153.0
59.6204 113.0
59.6894 134.0
59.7583 143.0
59.8272 133.0
59.8962 143.0
59.9651 114.0
60.034 136.0
60.103 117.0
60.1719 139.0
60.2408 151.0
60.3098 156.0
60.3787 164.0
60.4476 148.0
60.5166 169.0
60.5855 144.0
60.6544 171.0
60.7234 220.0
60.7923 631.0
60.8613 1182.0
60.9302 694.0
60.9991 232.0
61.0681 187.0
61.137 184.0
61.2059 169.0
61.2749 148.0
61.3438 174.0
61.4127 170.0
61.4817 148.0
61.5506 151.0
61.6195 153.0
61.6885 148.0
61.7574 159.0
61.8263 147.0
61.8953 175.0
61.9642 142.0
62.0331 145.0
62.1021 162.0
62.171 145.0
62.2399 162.0
62.3089 162.0
62.3778 139.0
62.4467 132.0
62.5157 153.0
62.5846 152.0
62.6535 154.0
62.7225 158.0
62.7914 157.0
62.8603 160.0
62.9293 174.0
62.9982 146.0
63.0671 169.0
63.1361 168.0
63.205 182.0
63.2739 170.0
63.3429 176.0
63.4118 192.0
63.4807 144.0
63.5497 158.0
63.6186 205.0
63.6875 208.0
63.7565 194.0
63.8254 209.0
63.8943 215.0
63.9633 237.0
64.0322 241.0
64.1011 276.0
64.1701 255.0
64.239 293.0
64.3079 309.0
64.3769 324.0
64.4458 356.0
64.5148 361.0
64.5837 341.0
64.6526 377.0
64.7216 369.0
64.7905 308.0
64.8594 317.0
64.9284 308.0
64.9973 261.0
65.0662 259.0
65.1352 261.0
65.2041 211.0
65.273 207.0
65.342 215.0
65.4109 206.0
65.4798 216.0
65.5488 212.0
65.6177 221.0
65.6866 230.0
65.7556 203.0
65.8245 202.0
65.8934 238.0
65.9624 205.0
66.0313 262.0
66.1002 280.0
66.1692 274.0
66.2381 282.0
66.307 288.0
66.376 300.0
66.4449 288.0
66.5138 334.0
66.5828 331.0
66.6517 322.0
66.7206 375.0
66.7896 383.0
66.8585 384.0
66.9274 422.0
66.9964 459.0
67.0653 507.0
67.1342 484.0
67.2032 495.0
67.2721 613.0
67.341 596.0
67.41 667.0
67.4789 750.0
67.5478 862.0
67.6168 1006.0
67.6857 1196.0
67.7546 1982.0
67.8236 3413.0
67.8925 3639.0
67.9615 4526.0
68.0304 10009.0
68.0993 36083.0
68.1683 331543.0
68.2372 30683.0
68.3061 39369.0
68.3751 139644.0
68.444 11970.0
68.5129 4732.0
68.5819 3079.0
68.6508 2158.0
68.7197 1687.0
68.7887 1347.0
68.8576 1081.0
68.9265 901.0
68.9955 833.0
69.0644 714.0
69.1333 643.0
69.2023 522.0
69.2712 483.0
69.3401 442.0
69.4091 414.0
69.478 345.0
69.5469 324.0
69.6159 361.0
69.6848 320.0
69.7537 299.0
69.8227 268.0
69.8916 234.0
69.9605 305.0
70.0295 237.0
70.0984 203.0
70.1673 226.0
70.2363 211.0
70.3052 200.0
70.3741 180.0
70.4431 181.0
70.512 196.0
70.5809 182.0
70.6499 187.0
70.7188 191.0
70.7877 181.0
70.8567 177.0
70.9256 185.0
70.9945 159.0
71.0635 168.0
71.1324 173.0
71.2013 174.0
71.2703 174.0
71.3392 155.0
71.4082 166.0
71.4771 176.0
71.546 174.0
71.615 180.0
71.6839 172.0
71.7528 159.0
71.8218 136.0
71.8907 152.0
71.9596 145.0
72.0286 154.0
72.0975 166.0
72.1664 144.0
72.2354 134.0
72.3043 161.0
72.3732 148.0
72.4422 145.0
72.5111 161.0
72.58 164.0
72.649 144.0
72.7179 143.0
72.7868 165.0
72.8558 154.0
72.9247 140.0
72.9936 149.0
73.0626 137.0
73.1315 156.0
73.2004 148.0
73.2694 142.0
73.3383 140.0
73.4072 139.0
73.4762 158.0
73.5451 159.0
73.614 162.0
73.683 156.0
73.7519 170.0
73.8208 153.0
73.8898 131.0
73.9587 151.0
74.0276 162.0
74.0966 155.0
74.1655 151.0
74.2344 162.0
74.3034 161.0
74.3723 144.0
74.4412 154.0
74.5102 140.0
74.5791 141.0
74.648 159.0
74.717 140.0
74.7859 144.0
74.8548 159.0
74.9238 138.0
74.9927 148.0
74.9976 145.0