Folder: DataAnalysis/data/w6929a/XRD_Omega

Note: data/w6929a/XRD_Omega/W6929a_omega_peaks.TXT
No.	Label	Pos. [記mega]	FWHM Left [記mega]	Area [cts*記mega]	Backgr.[cts]	d-spacing [魔	Height [cts]	Shape Left	Status	Integral Breadth [記mega]	FWHM Right [記mega]	Shape Right	Obs. Lorentz B [記mega]	Obs. Gauss B [記mega]	Instr. Lorentz B [記mega]	Instr. Gauss B [記mega]	Crystallite Size [魔	Micro Strain [%]	Crystallite Size only [魔	Micro Strain only [%]
1	Cr2O3 1 1 0	18,270(1)	0,950(5)	1790,15	128,00	 	1199(4)	1,000(6)	Included	1,492782	 	 	1,485778	0,025210	0,075401	0,063873	63,389920	-0,159246	63,389600	3,827021

Note: README.md
# Methods
## RSM analysis

Check out [doc](documentation/RSM.md)

File: film_a_scan_omega_4deg_step_0.005deg0_C2.xy
16.32240 168.0
16.33740 171.0
16.35240 204.0
16.36740 194.0
16.38240 182.0
16.39740 196.0
16.41240 228.0
16.42740 189.0
16.44240 218.0
16.45740 232.0
16.47240 200.0
16.48740 218.0
16.50240 237.0
16.51740 219.0
16.53240 223.0
16.54740 255.0
16.56240 244.0
16.57740 231.0
16.59240 257.0
16.60740 240.0
16.62240 245.0
16.63740 264.0
16.65240 246.0
16.66740 244.0
16.68240 265.0
16.69740 281.0
16.71240 249.0
16.72740 289.0
16.74240 289.0
16.75740 314.0
16.77240 299.0
16.78740 329.0
16.80240 355.0
16.81740 333.0
16.83240 310.0
16.84740 341.0
16.86240 357.0
16.87740 328.0
16.89240 359.0
16.90740 330.0
16.92240 364.0
16.93740 366.0
16.95240 355.0
16.96740 385.0
16.98240 396.0
16.99740 413.0
17.01240 427.0
17.02740 415.0
17.04240 404.0
17.05740 415.0
17.07240 428.0
17.08740 435.0
17.10240 459.0
17.11740 458.0
17.13240 478.0
17.14740 463.0
17.16240 488.0
17.17740 481.0
17.19240 493.0
17.20740 525.0
17.22240 534.0
17.23740 581.0
17.25240 507.0
17.26740 558.0
17.28240 566.0
17.29740 539.0
17.31240 558.0
17.32740 583.0
17.34240 578.0
17.35740 605.0
17.37240 566.0
17.38740 591.0
17.40240 634.0
17.41740 646.0
17.43240 671.0
17.44740 596.0
17.46240 700.0
17.47740 695.0
17.49240 700.0
17.50740 733.0
17.52240 769.0
17.53740 755.0
17.55240 779.0
17.56740 739.0
17.58240 785.0
17.59740 790.0
17.61240 802.0
17.62740 802.0
17.64240 837.0
17.65740 825.0
17.67240 811.0
17.68740 875.0
17.70240 890.0
17.71740 891.0
17.73240 933.0
17.74740 950.0
17.76240 885.0
17.77740 921.0
17.79240 969.0
17.80740 997.0
17.82240 1078.0
17.83740 1018.0
17.85240 1050.0
17.86740 1037.0
17.88240 1068.0
17.89740 1097.0
17.91240 1135.0
17.92740 1192.0
17.94240 1209.0
17.95740 1242.0
17.97240 1262.0
17.98740 1264.0
18.00240 1248.0
18.01740 1321.0
18.03240 1356.0
18.04740 1377.0
18.06240 1376.0
18.07740 1411.0
18.09240 1345.0
18.10740 1482.0
18.12240 1501.0
18.13740 1570.0
18.15240 1588.0
18.16740 1780.0
18.18240 1687.0
18.19740 1846.0
18.21240 1796.0
18.22740 1912.0
18.24240 1984.0
18.25740 2393.0
18.27240 2745.0
18.28740 3064.0
18.30240 3087.0
18.31740 2917.0
18.33240 2622.0
18.34740 2370.0
18.36240 2209.0
18.37740 1990.0
18.39240 1884.0
18.40740 1804.0
18.42240 1756.0
18.43740 1581.0
18.45240 1546.0
18.46740 1512.0
18.48240 1547.0
18.49740 1495.0
18.51240 1428.0
18.52740 1380.0
18.54240 1359.0
18.55740 1332.0
18.57240 1275.0
18.58740 1304.0
18.60240 1207.0
18.61740 1253.0
18.63240 1247.0
18.64740 1182.0
18.66240 1182.0
18.67740 1119.0
18.69240 1061.0
18.70740 1177.0
18.72240 1042.0
18.73740 971.0
18.75240 1079.0
18.76740 995.0
18.78240 969.0
18.79740 946.0
18.81240 912.0
18.82740 938.0
18.84240 918.0
18.85740 896.0
18.87240 920.0
18.88740 875.0
18.90240 855.0
18.91740 862.0
18.93240 778.0
18.94740 758.0
18.96240 798.0
18.97740 793.0
18.99240 772.0
19.00740 749.0
19.02240 762.0
19.03740 723.0
19.05240 691.0
19.06740 706.0
19.08240 647.0
19.09740 612.0
19.11240 660.0
19.12740 673.0
19.14240 626.0
19.15740 620.0
19.17240 602.0
19.18740 569.0
19.20240 636.0
19.21740 562.0
19.23240 562.0
19.24740 533.0
19.26240 509.0
19.27740 506.0
19.29240 482.0
19.30740 510.0
19.32240 499.0
19.33740 461.0
19.35240 477.0
19.36740 464.0
19.38240 461.0
19.39740 457.0
19.41240 433.0
19.42740 431.0
19.44240 418.0
19.45740 451.0
19.47240 382.0
19.48740 383.0
19.50240 369.0
19.51740 394.0
19.53240 360.0
19.54740 359.0
19.56240 367.0
19.57740 393.0
19.59240 322.0
19.60740 320.0
19.62240 350.0
19.63740 380.0
19.65240 326.0
19.66740 327.0
19.68240 314.0
19.69740 291.0
19.71240 331.0
19.72740 282.0
19.74240 295.0
19.75740 291.0
19.77240 267.0
19.78740 267.0
19.80240 254.0
19.81740 225.0
19.83240 259.0
19.84740 275.0
19.86240 256.0
19.87740 228.0
19.89240 234.0
19.90740 254.0
19.92240 223.0
19.93740 200.0
19.95240 221.0
19.96740 198.0
19.98240 219.0
19.99740 223.0
20.01240 185.0
20.02740 189.0
20.04240 203.0
20.05740 192.0
20.07240 178.0
20.08740 205.0
20.10240 189.0
20.11740 170.0
20.13240 182.0
20.14740 177.0
20.16240 174.0
20.17740 184.0
20.19240 169.0
20.20740 174.0
20.22240 153.0
20.23740 157.0
20.25240 158.0
20.26740 177.0
20.28240 157.0