Folder: DataAnalysis/data/w6929a/XRD_2ThetaOmega

Note: data/w6929a/XRD_2ThetaOmega/W6929a_peaks.TXT
No.	Label	Pos. [°2Th.]	FWHM Left [°2Th.]	Area [cts*°2Th.]	Backgr.[cts]	d-spacing [Å]	Height [cts]	Shape Left	Status	Integral Breadth [°2Th.]	FWHM Right [°2Th.]	Shape Right	Obs. Lorentz B [°2Th.]	Obs. Gauss B [°2Th.]	Instr. Lorentz B [°2Th.]	Instr. Gauss B [°2Th.]	Crystallite Size [Å]	Micro Strain [%]	Crystallite Size only [Å]	Micro Strain only [%]
1	Cr2O3 1 1 0	36,0070(2)	0,1359(6)	1028,10	120,01	2,49227	6086(23)	0,446(6)	Included	0,168918	 	 	0,082083	0,111482	0,073949	0,062647	11411,380000	0,123809	952,573000	0,130818
2	Al2O3 1 1 0	37,71626(1)	0,03274(3)	11280,90	132,22	2,38316	273706(237)	0,479(1)	Included	0,041215	 	 	0,021379	0,026165	0,073930	0,062631	-1774,967000	-0,072693	29493,370000	0,004040

Note: README.md
# Methods
## RSM analysis

Check out [doc](documentation/RSM.md)

File: scan_2th-om_a_Cr2O3_30-40deg_PIXscan_4min_C2.xy
30.0025 47.0
30.0369 53.0
30.0714 57.0
30.1059 51.0
30.1403 43.0
30.1748 46.0
30.2093 62.0
30.2437 58.0
30.2782 54.0
30.3127 50.0
30.3471 65.0
30.3816 42.0
30.4161 53.0
30.4505 63.0
30.485 43.0
30.5195 69.0
30.5539 61.0
30.5884 55.0
30.6229 41.0
30.6573 41.0
30.6918 41.0
30.7263 60.0
30.7607 51.0
30.7952 58.0
30.8297 54.0
30.8641 55.0
30.8986 74.0
30.9331 46.0
30.9675 46.0
31.002 57.0
31.0365 56.0
31.0709 56.0
31.1054 45.0
31.1399 65.0
31.1743 46.0
31.2088 48.0
31.2433 42.0
31.2777 52.0
31.3122 50.0
31.3467 54.0
31.3811 55.0
31.4156 54.0
31.4501 58.0
31.4845 64.0
31.519 32.0
31.5535 52.0
31.5879 61.0
31.6224 52.0
31.6569 53.0
31.6913 48.0
31.7258 65.0
31.7603 58.0
31.7947 46.0
31.8292 41.0
31.8637 55.0
31.8981 53.0
31.9326 42.0
31.9671 40.0
32.0015 52.0
32.036 53.0
32.0705 46.0
32.1049 55.0
32.1394 55.0
32.1739 55.0
32.2083 48.0
32.2428 45.0
32.2773 54.0
32.3118 54.0
32.3462 56.0
32.3807 77.0
32.4152 82.0
32.4496 84.0
32.4841 65.0
32.5186 84.0
32.553 64.0
32.5875 65.0
32.622 52.0
32.6564 54.0
32.6909 45.0
32.7254 53.0
32.7598 47.0
32.7943 54.0
32.8288 50.0
32.8632 63.0
32.8977 69.0
32.9322 49.0
32.9666 62.0
33.0011 52.0
33.0356 61.0
33.07 47.0
33.1045 51.0
33.139 51.0
33.1734 56.0
33.2079 50.0
33.2424 63.0
33.2768 56.0
33.3113 54.0
33.3458 62.0
33.3802 51.0
33.4147 55.0
33.4492 61.0
33.4836 45.0
33.5181 55.0
33.5526 37.0
33.587 53.0
33.6215 62.0
33.656 54.0
33.6904 49.0
33.7249 64.0
33.7594 51.0
33.7938 62.0
33.8283 61.0
33.8628 59.0
33.8972 83.0
33.9317 292.0
33.9662 810.0
34.0006 161.0
34.0351 110.0
34.0696 74.0
34.104 68.0
34.1385 73.0
34.173 61.0
34.2074 66.0
34.2419 66.0
34.2764 61.0
34.3108 54.0
34.3453 60.0
34.3798 68.0
34.4142 61.0
34.4487 68.0
34.4832 80.0
34.5176 69.0
34.5521 71.0
34.5866 59.0
34.621 60.0
34.6555 85.0
34.69 67.0
34.7244 64.0
34.7589 61.0
34.7934 76.0
34.8278 59.0
34.8623 83.0
34.8968 76.0
34.9312 69.0
34.9657 65.0
35.0002 80.0
35.0346 81.0
35.0691 71.0
35.1036 72.0
35.138 68.0
35.1725 91.0
35.207 85.0
35.2414 91.0
35.2759 88.0
35.3104 90.0
35.3448 96.0
35.3793 103.0
35.4138 111.0
35.4482 121.0
35.4827 143.0
35.5172 141.0
35.5516 123.0
35.5861 148.0
35.6206 152.0
35.655 192.0
35.6895 174.0
35.724 272.0
35.7584 328.0
35.7929 369.0
35.8274 568.0
35.8619 809.0
35.8963 1305.0
35.9308 2852.0
35.9653 5361.0
35.9997 7010.0
36.0342 7123.0
36.0687 5893.0
36.1031 4675.0
36.1376 3300.0
36.1721 1881.0
36.2065 1095.0
36.241 699.0
36.2755 552.0
36.3099 387.0
36.3444 343.0
36.3789 295.0
36.4133 234.0
36.4478 210.0
36.4823 215.0
36.5167 188.0
36.5512 158.0
36.5857 170.0
36.6201 149.0
36.6546 174.0
36.6891 154.0
36.7235 152.0
36.758 152.0
36.7925 152.0
36.8269 170.0
36.8614 179.0
36.8959 215.0
36.9303 180.0
36.9648 202.0
36.9993 195.0
37.0337 271.0
37.0682 207.0
37.1027 267.0
37.1371 287.0
37.1716 310.0
37.2061 353.0
37.2405 339.0
37.275 372.0
37.3095 419.0
37.3439 485.0
37.3784 485.0
37.4129 621.0
37.4473 687.0
37.4818 910.0
37.5163 1511.0
37.5507 2562.0
37.5852 2443.0
37.6197 3135.0
37.6541 7060.0
37.6886 45038.0
37.7231 243546.0
37.7575 20104.0
37.792 47755.0
37.8265 91711.0
37.8609 7836.0
37.8954 3011.0
37.9299 1831.0
37.9643 1328.0
37.9988 1019.0
38.0333 796.0
38.0677 615.0
38.1022 593.0
38.1367 502.0
38.1711 409.0
38.2056 409.0
38.2401 338.0
38.2745 321.0
38.309 290.0
38.3435 201.0
38.3779 175.0
38.4124 171.0
38.4469 163.0
38.4813 153.0
38.5158 119.0
38.5503 127.0
38.5847 123.0
38.6192 126.0
38.6537 95.0
38.6881 109.0
38.7226 93.0
38.7571 99.0
38.7915 81.0
38.826 76.0
38.8605 98.0
38.8949 87.0
38.9294 99.0
38.9639 78.0
38.9983 79.0
39.0328 77.0
39.0673 81.0
39.1017 77.0
39.1362 55.0
39.1707 69.0
39.2051 70.0
39.2396 74.0
39.2741 64.0
39.3085 75.0
39.343 84.0
39.3775 65.0
39.412 69.0
39.4464 71.0
39.4809 62.0
39.5154 78.0
39.5498 48.0
39.5843 53.0
39.6188 64.0
39.6532 63.0
39.6877 53.0
39.7222 42.0
39.7566 61.0
39.7911 65.0
39.8256 70.0
39.86 63.0
39.8945 67.0
39.929 68.0
39.9634 59.0
39.9979 72.0