Folder: DataAnalysis/data/W6853m/XRD_Omega

Note: README.md
# Methods
## RSM analysis

Check out [doc](documentation/RSM.md)

File: W6853m_Cr2O3_scan_omega_2deg_step_0.002deg0_1.xy
31.62040 584.0
31.62840 588.0
31.63640 597.0
31.64440 588.0
31.65240 637.0
31.66040 626.0
31.66840 695.0
31.67640 643.0
31.68440 726.0
31.69240 696.0
31.70040 716.0
31.70840 704.0
31.71640 776.0
31.72440 773.0
31.73240 796.0
31.74040 818.0
31.74840 825.0
31.75640 735.0
31.76440 810.0
31.77240 818.0
31.78040 891.0
31.78840 866.0
31.79640 921.0
31.80440 862.0
31.81240 924.0
31.82040 903.0
31.82840 945.0
31.83640 1018.0
31.84440 959.0
31.85240 1058.0
31.86040 1003.0
31.86840 1056.0
31.87640 1094.0
31.88440 1123.0
31.89240 1069.0
31.90040 1097.0
31.90840 1174.0
31.91640 1072.0
31.92440 1194.0
31.93240 1209.0
31.94040 1180.0
31.94840 1321.0
31.95640 1235.0
31.96440 1300.0
31.97240 1363.0
31.98040 1345.0
31.98840 1369.0
31.99640 1362.0
32.00440 1392.0
32.01240 1476.0
32.02040 1545.0
32.02840 1543.0
32.03640 1633.0
32.04440 1592.0
32.05240 1547.0
32.06040 1592.0
32.06840 1617.0
32.07640 1692.0
32.08440 1638.0
32.09240 1641.0
32.10040 1713.0
32.10840 1931.0
32.11640 1850.0
32.12440 1913.0
32.13240 1884.0
32.14040 1904.0
32.14840 1922.0
32.15640 1857.0
32.16440 2018.0
32.17240 2015.0
32.18040 2037.0
32.18840 2089.0
32.19640 2074.0
32.20440 2180.0
32.21240 2185.0
32.22040 2242.0
32.22840 2281.0
32.23640 2243.0
32.24440 2367.0
32.25240 2299.0
32.26040 2283.0
32.26840 2428.0
32.27640 2376.0
32.28440 2434.0
32.29240 2466.0
32.30040 2631.0
32.30840 2492.0
32.31640 2566.0
32.32440 2703.0
32.33240 2634.0
32.34040 2753.0
32.34840 2682.0
32.35640 2790.0
32.36440 2837.0
32.37240 2891.0
32.38040 2886.0
32.38840 2801.0
32.39640 2973.0
32.40440 2918.0
32.41240 2951.0
32.42040 3005.0
32.42840 3019.0
32.43640 3007.0
32.44440 3142.0
32.45240 3140.0
32.46040 3020.0
32.46840 3169.0
32.47640 3208.0
32.48440 3116.0
32.49240 3238.0
32.50040 3255.0
32.50840 3255.0
32.51640 3332.0
32.52440 3270.0
32.53240 3314.0
32.54040 3349.0
32.54840 3255.0
32.55640 3249.0
32.56440 3330.0
32.57240 3342.0
32.58040 3317.0
32.58840 3304.0
32.59640 3399.0
32.60440 3379.0
32.61240 3252.0
32.62040 3386.0
32.62840 3397.0
32.63640 3365.0
32.64440 3284.0
32.65240 3308.0
32.66040 3349.0
32.66840 3346.0
32.67640 3299.0
32.68440 3316.0
32.69240 3295.0
32.70040 3283.0
32.70840 3278.0
32.71640 3162.0
32.72440 3196.0
32.73240 3256.0
32.74040 3251.0
32.74840 3265.0
32.75640 3069.0
32.76440 3170.0
32.77240 3076.0
32.78040 3071.0
32.78840 3051.0
32.79640 3020.0
32.80440 2951.0
32.81240 2866.0
32.82040 2936.0
32.82840 2815.0
32.83640 2922.0
32.84440 2790.0
32.85240 2808.0
32.86040 2998.0
32.86840 2798.0
32.87640 2720.0
32.88440 2848.0
32.89240 2729.0
32.90040 2883.0
32.90840 2892.0
32.91640 3163.0
32.92440 3367.0
32.93240 3613.0
32.94040 3691.0
32.94840 3535.0
32.95640 3343.0
32.96440 3262.0
32.97240 2945.0
32.98040 2772.0
32.98840 2820.0
32.99640 2682.0
33.00440 2711.0
33.01240 2669.0
33.02040 2559.0
33.02840 2484.0
33.03640 2430.0
33.04440 2184.0
33.05240 2209.0
33.06040 2206.0
33.06840 2159.0
33.07640 2131.0
33.08440 2029.0
33.09240 1997.0
33.10040 1912.0
33.10840 1860.0
33.11640 1769.0
33.12440 1730.0
33.13240 1682.0
33.14040 1629.0
33.14840 1557.0
33.15640 1576.0
33.16440 1617.0
33.17240 1613.0
33.18040 1527.0
33.18840 1594.0
33.19640 1599.0
33.20440 1545.0
33.21240 1577.0
33.22040 1501.0
33.22840 1442.0
33.23640 1464.0
33.24440 1380.0
33.25240 1253.0
33.26040 1251.0
33.26840 1122.0
33.27640 1168.0
33.28440 1131.0
33.29240 1191.0
33.30040 1094.0
33.30840 1063.0
33.31640 1061.0
33.32440 1068.0
33.33240 991.0
33.34040 965.0
33.34840 978.0
33.35640 897.0
33.36440 850.0
33.37240 873.0
33.38040 861.0
33.38840 886.0
33.39640 841.0
33.40440 851.0
33.41240 870.0
33.42040 859.0
33.42840 771.0
33.43640 755.0
33.44440 769.0
33.45240 724.0
33.46040 686.0
33.46840 709.0
33.47640 746.0
33.48440 700.0
33.49240 669.0
33.50040 597.0
33.50840 687.0
33.51640 627.0
33.52440 607.0
33.53240 664.0
33.54040 651.0
33.54840 649.0
33.55640 577.0
33.56440 602.0
33.57240 540.0
33.58040 580.0
33.58840 545.0
33.59640 574.0
33.60440 625.0