Folder: DataAnalysis/data/W6901a/XRD_Omega

Note: data/W6901a/XRD_Omega/W6901a_omega_peaks.TXT
No.	Label	Pos. [記mega]	FWHM Left [記mega]	Area [cts*記mega]	Backgr.[cts]	d-spacing [魔	Height [cts]	Shape Left	Status	Integral Breadth [記mega]	FWHM Right [記mega]	Shape Right	Obs. Lorentz B [記mega]	Obs. Gauss B [記mega]	Instr. Lorentz B [記mega]	Instr. Gauss B [記mega]	Crystallite Size [魔	Micro Strain [%]	Crystallite Size only [魔	Micro Strain only [%]
1	Cr2O3 1 1 0	17,9781(4)	0,186(2)	450,70	70,19	 	1601(10)	0,92(1)	Included	0,281461	 	 	0,262144	0,061069	0,075442	0,063908	478,663500	-0,051960	478,526200	0,515128

Note: README.md
# Methods
## RSM analysis

Check out [doc](documentation/RSM.md)

File: scan_omega_4deg_step_0.005deg0_C2_1.xy
16.00970 75.0
16.02470 60.0
16.03970 74.0
16.05470 63.0
16.06970 79.0
16.08470 75.0
16.09970 65.0
16.11470 60.0
16.12970 70.0
16.14470 65.0
16.15970 66.0
16.17470 67.0
16.18970 92.0
16.20470 64.0
16.21970 66.0
16.23470 64.0
16.24970 65.0
16.26470 76.0
16.27970 85.0
16.29470 77.0
16.30970 82.0
16.32470 69.0
16.33970 75.0
16.35470 74.0
16.36970 75.0
16.38470 70.0
16.39970 78.0
16.41470 74.0
16.42970 82.0
16.44470 65.0
16.45970 79.0
16.47470 67.0
16.48970 79.0
16.50470 74.0
16.51970 71.0
16.53470 64.0
16.54970 73.0
16.56470 84.0
16.57970 74.0
16.59470 86.0
16.60970 82.0
16.62470 53.0
16.63970 74.0
16.65470 72.0
16.66970 81.0
16.68470 71.0
16.69970 80.0
16.71470 91.0
16.72970 78.0
16.74470 80.0
16.75970 86.0
16.77470 78.0
16.78970 75.0
16.80470 89.0
16.81970 76.0
16.83470 91.0
16.84970 83.0
16.86470 91.0
16.87970 83.0
16.89470 94.0
16.90970 94.0
16.92470 96.0
16.93970 93.0
16.95470 106.0
16.96970 118.0
16.98470 97.0
16.99970 104.0
17.01470 100.0
17.02970 102.0
17.04470 95.0
17.05970 89.0
17.07470 115.0
17.08970 108.0
17.10470 119.0
17.11970 110.0
17.13470 102.0
17.14970 112.0
17.16470 128.0
17.17970 127.0
17.19470 116.0
17.20970 154.0
17.22470 123.0
17.23970 135.0
17.25470 143.0
17.26970 159.0
17.28470 153.0
17.29970 132.0
17.31470 166.0
17.32970 171.0
17.34470 147.0
17.35970 180.0
17.37470 163.0
17.38970 165.0
17.40470 165.0
17.41970 160.0
17.43470 213.0
17.44970 199.0
17.46470 198.0
17.47970 207.0
17.49470 209.0
17.50970 231.0
17.52470 206.0
17.53970 210.0
17.55470 263.0
17.56970 261.0
17.58470 255.0
17.59970 236.0
17.61470 255.0
17.62970 269.0
17.64470 267.0
17.65970 252.0
17.67470 277.0
17.68970 296.0
17.70470 318.0
17.71970 319.0
17.73470 312.0
17.74970 346.0
17.76470 343.0
17.77970 355.0
17.79470 314.0
17.80970 356.0
17.82470 336.0
17.83970 437.0
17.85470 774.0
17.86970 1238.0
17.88470 1537.0
17.89970 1639.0
17.91470 1710.0
17.92970 1934.0
17.94470 2075.0
17.95970 2109.0
17.97470 2088.0
17.98970 2170.0
18.00470 2174.0
18.01970 2069.0
18.03470 2093.0
18.04970 1952.0
18.06470 1803.0
18.07970 1655.0
18.09470 1521.0
18.10970 1278.0
18.12470 954.0
18.13970 582.0
18.15470 377.0
18.16970 371.0
18.18470 384.0
18.19970 361.0
18.21470 333.0
18.22970 329.0
18.24470 349.0
18.25970 300.0
18.27470 309.0
18.28970 329.0
18.30470 268.0
18.31970 293.0
18.33470 266.0
18.34970 262.0
18.36470 283.0
18.37970 264.0
18.39470 231.0
18.40970 253.0
18.42470 221.0
18.43970 213.0
18.45470 232.0
18.46970 203.0
18.48470 195.0
18.49970 217.0
18.51470 193.0
18.52970 182.0
18.54470 187.0
18.55970 156.0
18.57470 166.0
18.58970 177.0
18.60470 171.0
18.61970 166.0
18.63470 162.0
18.64970 143.0
18.66470 166.0
18.67970 142.0
18.69470 130.0
18.70970 159.0
18.72470 151.0
18.73970 133.0
18.75470 123.0
18.76970 128.0
18.78470 111.0
18.79970 128.0
18.81470 124.0
18.82970 126.0
18.84470 124.0
18.85970 99.0
18.87470 109.0
18.88970 110.0
18.90470 104.0
18.91970 101.0
18.93470 101.0
18.94970 88.0
18.96470 99.0
18.97970 102.0
18.99470 105.0
19.00970 99.0
19.02470 78.0
19.03970 85.0
19.05470 96.0
19.06970 85.0
19.08470 94.0
19.09970 75.0
19.11470 96.0
19.12970 89.0
19.14470 69.0
19.15970 86.0
19.17470 84.0
19.18970 88.0
19.20470 85.0
19.21970 87.0
19.23470 60.0
19.24970 74.0
19.26470 82.0
19.27970 76.0
19.29470 73.0
19.30970 86.0
19.32470 80.0
19.33970 68.0
19.35470 79.0
19.36970 62.0
19.38470 57.0
19.39970 75.0
19.41470 65.0
19.42970 52.0
19.44470 75.0
19.45970 84.0
19.47470 68.0
19.48970 66.0
19.50470 66.0
19.51970 63.0
19.53470 71.0
19.54970 55.0
19.56470 61.0
19.57970 69.0
19.59470 77.0
19.60970 72.0
19.62470 65.0
19.63970 51.0
19.65470 64.0
19.66970 73.0
19.68470 56.0
19.69970 70.0
19.71470 50.0
19.72970 65.0
19.74470 67.0
19.75970 71.0
19.77470 51.0
19.78970 69.0
19.80470 63.0
19.81970 49.0
19.83470 46.0
19.84970 57.0
19.86470 74.0
19.87970 57.0
19.89470 57.0
19.90970 63.0
19.92470 67.0
19.93970 52.0
19.95470 55.0
19.96970 64.0