Folder: DataAnalysis/data/W6901a/XRD_2ThetaOmega

Note: data/W6901a/XRD_2ThetaOmega/W6901a_peaks.TXT
No.	Label	Pos. [°2Th.]	FWHM Left [°2Th.]	Area [cts*°2Th.]	Backgr.[cts]	d-spacing [Å]	Height [cts]	Shape Left	Status	Integral Breadth [°2Th.]	FWHM Right [°2Th.]	Shape Right	Obs. Lorentz B [°2Th.]	Obs. Gauss B [°2Th.]	Instr. Lorentz B [°2Th.]	Instr. Gauss B [°2Th.]	Crystallite Size [Å]	Micro Strain [%]	Crystallite Size only [Å]	Micro Strain only [%]
1	Cr2O3 1 1 0	35,688(1)	0,449(3)	279,55	237,36	2,51384	584(4)	0,00(3)	Included	0,478400	 	 	0,001170	0,478400	0,073956	0,062652	-1274,025000	0,642866	195,496600	0,642938
2	Al2O3 1 1 0	37,67081(1)	0,04605(3)	16369,18	267,61	2,38593	295639(194)	0,3556(9)	Included	0,055369	 	 	0,021748	0,040386	0,073931	0,062631	-1787,264000	-0,061233	29489,380000	0,004045

Note: README.md
# Methods
## RSM analysis

Check out [doc](documentation/RSM.md)

File: scan_2th-om_a_Cr2O3_30-40deg_PIXscan_4min_2.xy
30.0025 109.0
30.0369 104.0
30.0714 115.0
30.1059 98.0
30.1403 101.0
30.1748 106.0
30.2093 91.0
30.2437 111.0
30.2782 124.0
30.3127 94.0
30.3471 86.0
30.3816 98.0
30.4161 95.0
30.4505 103.0
30.485 105.0
30.5195 97.0
30.5539 92.0
30.5884 106.0
30.6229 85.0
30.6573 113.0
30.6918 100.0
30.7263 107.0
30.7607 100.0
30.7952 104.0
30.8297 78.0
30.8641 102.0
30.8986 105.0
30.9331 105.0
30.9675 79.0
31.002 92.0
31.0365 102.0
31.0709 93.0
31.1054 101.0
31.1399 98.0
31.1743 105.0
31.2088 101.0
31.2433 86.0
31.2777 105.0
31.3122 104.0
31.3467 115.0
31.3811 95.0
31.4156 105.0
31.4501 90.0
31.4845 70.0
31.519 101.0
31.5535 96.0
31.5879 120.0
31.6224 104.0
31.6569 117.0
31.6913 114.0
31.7258 100.0
31.7603 97.0
31.7947 103.0
31.8292 99.0
31.8637 103.0
31.8981 100.0
31.9326 121.0
31.9671 103.0
32.0015 114.0
32.036 107.0
32.0705 98.0
32.1049 103.0
32.1394 99.0
32.1739 110.0
32.2083 96.0
32.2428 102.0
32.2773 103.0
32.3118 116.0
32.3462 86.0
32.3807 112.0
32.4152 103.0
32.4496 86.0
32.4841 119.0
32.5186 107.0
32.553 109.0
32.5875 97.0
32.622 103.0
32.6564 89.0
32.6909 108.0
32.7254 98.0
32.7598 105.0
32.7943 113.0
32.8288 86.0
32.8632 87.0
32.8977 99.0
32.9322 104.0
32.9666 83.0
33.0011 126.0
33.0356 88.0
33.07 113.0
33.1045 105.0
33.139 104.0
33.1734 116.0
33.2079 112.0
33.2424 91.0
33.2768 95.0
33.3113 100.0
33.3458 102.0
33.3802 98.0
33.4147 74.0
33.4492 88.0
33.4836 102.0
33.5181 103.0
33.5526 113.0
33.587 122.0
33.6215 113.0
33.656 131.0
33.6904 117.0
33.7249 108.0
33.7594 113.0
33.7938 131.0
33.8283 135.0
33.8628 217.0
33.8972 1004.0
33.9317 1064.0
33.9662 306.0
34.0006 164.0
34.0351 152.0
34.0696 128.0
34.104 133.0
34.1385 142.0
34.173 151.0
34.2074 119.0
34.2419 147.0
34.2764 132.0
34.3108 130.0
34.3453 137.0
34.3798 141.0
34.4142 131.0
34.4487 147.0
34.4832 137.0
34.5176 146.0
34.5521 137.0
34.5866 125.0
34.621 140.0
34.6555 145.0
34.69 126.0
34.7244 154.0
34.7589 158.0
34.7934 172.0
34.8278 171.0
34.8623 166.0
34.8968 203.0
34.9312 188.0
34.9657 204.0
35.0002 171.0
35.0346 181.0
35.0691 180.0
35.1036 186.0
35.138 180.0
35.1725 186.0
35.207 210.0
35.2414 190.0
35.2759 218.0
35.3104 288.0
35.3448 364.0
35.3793 421.0
35.4138 438.0
35.4482 560.0
35.4827 630.0
35.5172 792.0
35.5516 771.0
35.5861 977.0
35.6206 1003.0
35.655 1031.0
35.6895 1081.0
35.724 1088.0
35.7584 1054.0
35.7929 1078.0
35.8274 962.0
35.8619 925.0
35.8963 817.0
35.9308 745.0
35.9653 655.0
35.9997 573.0
36.0342 517.0
36.0687 437.0
36.1031 390.0
36.1376 325.0
36.1721 225.0
36.2065 301.0
36.241 220.0
36.2755 199.0
36.3099 209.0
36.3444 194.0
36.3789 207.0
36.4133 172.0
36.4478 224.0
36.4823 223.0
36.5167 201.0
36.5512 187.0
36.5857 215.0
36.6201 206.0
36.6546 202.0
36.6891 223.0
36.7235 273.0
36.758 215.0
36.7925 258.0
36.8269 310.0
36.8614 307.0
36.8959 329.0
36.9303 384.0
36.9648 346.0
36.9993 402.0
37.0337 405.0
37.0682 412.0
37.1027 454.0
37.1371 476.0
37.1716 491.0
37.2061 579.0
37.2405 608.0
37.275 666.0
37.3095 750.0
37.3439 778.0
37.3784 952.0
37.4129 1169.0
37.4473 1654.0
37.4818 2939.0
37.5163 3809.0
37.5507 3911.0
37.5852 6296.0
37.6197 18863.0
37.6541 225373.0
37.6886 212699.0
37.7231 28272.0
37.7575 128197.0
37.792 79904.0
37.8265 9177.0
37.8609 3993.0
37.8954 2527.0
37.9299 1955.0
37.9643 1514.0
37.9988 1226.0
38.0333 1083.0
38.0677 993.0
38.1022 885.0
38.1367 792.0
38.1711 700.0
38.2056 644.0
38.2401 590.0
38.2745 544.0
38.309 478.0
38.3435 470.0
38.3779 398.0
38.4124 368.0
38.4469 364.0
38.4813 312.0
38.5158 312.0
38.5503 286.0
38.5847 287.0
38.6192 226.0
38.6537 257.0
38.6881 200.0
38.7226 204.0
38.7571 181.0
38.7915 192.0
38.826 156.0
38.8605 156.0
38.8949 176.0
38.9294 137.0
38.9639 150.0
38.9983 136.0
39.0328 145.0
39.0673 134.0
39.1017 165.0
39.1362 150.0
39.1707 125.0
39.2051 116.0
39.2396 135.0
39.2741 138.0
39.3085 107.0
39.343 137.0
39.3775 110.0
39.412 147.0
39.4464 122.0
39.4809 121.0
39.5154 111.0
39.5498 109.0
39.5843 125.0
39.6188 133.0
39.6532 131.0
39.6877 127.0
39.7222 120.0
39.7566 127.0
39.7911 139.0
39.8256 117.0
39.86 129.0
39.8945 127.0
39.929 135.0
39.9634 109.0
39.9979 141.0