Folder: DataAnalysis/data/W6900a/XRD_2ThetaOmega

Note: data/W6900a/XRD_2ThetaOmega/W6900a_peaks.TXT
No.	Label	Pos. [°2Th.]	FWHM Left [°2Th.]	Area [cts*°2Th.]	Backgr.[cts]	d-spacing [Å]	Height [cts]	Shape Left	Status	Integral Breadth [°2Th.]	FWHM Right [°2Th.]	Shape Right	Obs. Lorentz B [°2Th.]	Obs. Gauss B [°2Th.]	Instr. Lorentz B [°2Th.]	Instr. Gauss B [°2Th.]	Crystallite Size [Å]	Micro Strain [%]	Crystallite Size only [Å]	Micro Strain only [%]
1	Cr2O3 1 1 0	35,5123(4)	0,291(1)	659,44	232,34	2,52585	1910(8)	0,32(1)	Included	0,345342	 	 	0,124176	0,260239	0,073959	0,062655	1845,691000	0,344171	324,732900	0,388912
2	Al2O3 1 1 0	37,66561(1)	0,04632(3)	15529,93	269,37	2,38625	278296(188)	0,3615(9)	Included	0,055804	 	 	0,022262	0,040452	0,073931	0,062631	-1805,013000	-0,061171	29488,930000	0,004046

Note: README.md
# Methods
## RSM analysis

Check out [doc](documentation/RSM.md)

File: scan_2th-om_a_Cr2O3_30-40deg_PIXscan_4min_1.xy
30.0025 114.0
30.0369 107.0
30.0714 114.0
30.1059 102.0
30.1403 118.0
30.1748 116.0
30.2093 100.0
30.2437 98.0
30.2782 113.0
30.3127 100.0
30.3471 112.0
30.3816 94.0
30.4161 97.0
30.4505 112.0
30.485 101.0
30.5195 115.0
30.5539 106.0
30.5884 98.0
30.6229 97.0
30.6573 102.0
30.6918 105.0
30.7263 109.0
30.7607 109.0
30.7952 108.0
30.8297 107.0
30.8641 124.0
30.8986 112.0
30.9331 127.0
30.9675 102.0
31.002 107.0
31.0365 110.0
31.0709 104.0
31.1054 119.0
31.1399 107.0
31.1743 104.0
31.2088 101.0
31.2433 95.0
31.2777 109.0
31.3122 100.0
31.3467 104.0
31.3811 107.0
31.4156 106.0
31.4501 116.0
31.4845 111.0
31.519 98.0
31.5535 111.0
31.5879 120.0
31.6224 93.0
31.6569 111.0
31.6913 106.0
31.7258 117.0
31.7603 114.0
31.7947 85.0
31.8292 88.0
31.8637 123.0
31.8981 95.0
31.9326 111.0
31.9671 122.0
32.0015 116.0
32.036 125.0
32.0705 124.0
32.1049 113.0
32.1394 121.0
32.1739 116.0
32.2083 107.0
32.2428 126.0
32.2773 104.0
32.3118 104.0
32.3462 125.0
32.3807 99.0
32.4152 109.0
32.4496 108.0
32.4841 107.0
32.5186 110.0
32.553 102.0
32.5875 94.0
32.622 105.0
32.6564 111.0
32.6909 108.0
32.7254 102.0
32.7598 113.0
32.7943 107.0
32.8288 113.0
32.8632 118.0
32.8977 106.0
32.9322 109.0
32.9666 101.0
33.0011 120.0
33.0356 96.0
33.07 119.0
33.1045 124.0
33.139 100.0
33.1734 114.0
33.2079 132.0
33.2424 118.0
33.2768 102.0
33.3113 118.0
33.3458 94.0
33.3802 104.0
33.4147 124.0
33.4492 128.0
33.4836 114.0
33.5181 97.0
33.5526 111.0
33.587 122.0
33.6215 131.0
33.656 139.0
33.6904 108.0
33.7249 130.0
33.7594 126.0
33.7938 146.0
33.8283 155.0
33.8628 273.0
33.8972 1046.0
33.9317 895.0
33.9662 315.0
34.0006 157.0
34.0351 155.0
34.0696 152.0
34.104 139.0
34.1385 145.0
34.173 125.0
34.2074 128.0
34.2419 135.0
34.2764 140.0
34.3108 179.0
34.3453 154.0
34.3798 171.0
34.4142 164.0
34.4487 158.0
34.4832 159.0
34.5176 135.0
34.5521 145.0
34.5866 151.0
34.621 162.0
34.6555 175.0
34.69 179.0
34.7244 194.0
34.7589 179.0
34.7934 188.0
34.8278 174.0
34.8623 191.0
34.8968 200.0
34.9312 223.0
34.9657 234.0
35.0002 258.0
35.0346 263.0
35.0691 286.0
35.1036 288.0
35.138 349.0
35.1725 415.0
35.207 462.0
35.2414 535.0
35.2759 606.0
35.3104 823.0
35.3448 1080.0
35.3793 1437.0
35.4138 1853.0
35.4482 2370.0
35.4827 2720.0
35.5172 3025.0
35.5516 3000.0
35.5861 2705.0
35.6206 2502.0
35.655 1949.0
35.6895 1578.0
35.724 1277.0
35.7584 943.0
35.7929 753.0
35.8274 687.0
35.8619 565.0
35.8963 521.0
35.9308 438.0
35.9653 438.0
35.9997 359.0
36.0342 379.0
36.0687 325.0
36.1031 309.0
36.1376 328.0
36.1721 280.0
36.2065 235.0
36.241 216.0
36.2755 227.0
36.3099 228.0
36.3444 227.0
36.3789 240.0
36.4133 229.0
36.4478 240.0
36.4823 215.0
36.5167 202.0
36.5512 233.0
36.5857 259.0
36.6201 226.0
36.6546 216.0
36.6891 227.0
36.7235 286.0
36.758 299.0
36.7925 310.0
36.8269 286.0
36.8614 296.0
36.8959 327.0
36.9303 313.0
36.9648 334.0
36.9993 350.0
37.0337 382.0
37.0682 417.0
37.1027 447.0
37.1371 432.0
37.1716 496.0
37.2061 493.0
37.2405 563.0
37.275 621.0
37.3095 720.0
37.3439 837.0
37.3784 896.0
37.4129 1163.0
37.4473 1784.0
37.4818 3470.0
37.5163 3783.0
37.5507 3741.0
37.5852 6586.0
37.6197 22527.0
37.6541 233184.0
37.6886 162688.0
37.7231 31108.0
37.7575 129933.0
37.792 59217.0
37.8265 7255.0
37.8609 3478.0
37.8954 2354.0
37.9299 1744.0
37.9643 1412.0
37.9988 1212.0
38.0333 1081.0
38.0677 951.0
38.1022 804.0
38.1367 732.0
38.1711 681.0
38.2056 623.0
38.2401 541.0
38.2745 544.0
38.309 456.0
38.3435 474.0
38.3779 408.0
38.4124 394.0
38.4469 383.0
38.4813 355.0
38.5158 304.0
38.5503 309.0
38.5847 226.0
38.6192 227.0
38.6537 200.0
38.6881 199.0
38.7226 207.0
38.7571 191.0
38.7915 168.0
38.826 164.0
38.8605 155.0
38.8949 156.0
38.9294 148.0
38.9639 159.0
38.9983 149.0
39.0328 153.0
39.0673 175.0
39.1017 140.0
39.1362 156.0
39.1707 130.0
39.2051 155.0
39.2396 135.0
39.2741 144.0
39.3085 129.0
39.343 120.0
39.3775 125.0
39.412 156.0
39.4464 129.0
39.4809 143.0
39.5154 141.0
39.5498 125.0
39.5843 128.0
39.6188 138.0
39.6532 129.0
39.6877 106.0
39.7222 126.0
39.7566 133.0
39.7911 136.0
39.8256 133.0
39.86 139.0
39.8945 116.0
39.929 137.0
39.9634 127.0
39.9979 115.0