Folder: DataAnalysis/data/W6900a/XRD_Omega

Note: data/W6900a/XRD_Omega/W6900a_omega_peaks.TXT
No.	Label	Pos. [記mega]	FWHM Left [記mega]	Area [cts*記mega]	Backgr.[cts]	d-spacing [魔	Height [cts]	Shape Left	Status	Integral Breadth [記mega]	FWHM Right [記mega]	Shape Right	Obs. Lorentz B [記mega]	Obs. Gauss B [記mega]	Instr. Lorentz B [記mega]	Instr. Gauss B [記mega]	Crystallite Size [魔	Micro Strain [%]	Crystallite Size only [魔	Micro Strain only [%]
1	Cr2O3 1 1 0	17,8608(7)	0,808(2)	1544,94	78,48	 	1533(4)	0,455(4)	Included	1,008077	 	 	0,498988	0,658352	0,075459	0,063922	210,972600	1,819424	93,976990	2,640097

Note: README.md
# Methods
## RSM analysis

Check out [doc](documentation/RSM.md)

File: scan_omega_4deg_step_0.005deg0_C1_1.xy
15.88750 74.0
15.90250 93.0
15.91750 97.0
15.93250 73.0
15.94750 78.0
15.96250 92.0
15.97750 68.0
15.99250 75.0
16.00750 64.0
16.02250 90.0
16.03750 76.0
16.05250 92.0
16.06750 94.0
16.08250 79.0
16.09750 69.0
16.11250 98.0
16.12750 80.0
16.14250 96.0
16.15750 93.0
16.17250 91.0
16.18750 88.0
16.20250 87.0
16.21750 85.0
16.23250 98.0
16.24750 105.0
16.26250 99.0
16.27750 96.0
16.29250 114.0
16.30750 110.0
16.32250 102.0
16.33750 131.0
16.35250 102.0
16.36750 102.0
16.38250 118.0
16.39750 100.0
16.41250 111.0
16.42750 137.0
16.44250 112.0
16.45750 136.0
16.47250 130.0
16.48750 137.0
16.50250 146.0
16.51750 132.0
16.53250 142.0
16.54750 126.0
16.56250 144.0
16.57750 178.0
16.59250 151.0
16.60750 157.0
16.62250 161.0
16.63750 149.0
16.65250 166.0
16.66750 170.0
16.68250 174.0
16.69750 190.0
16.71250 174.0
16.72750 186.0
16.74250 194.0
16.75750 220.0
16.77250 196.0
16.78750 223.0
16.80250 235.0
16.81750 215.0
16.83250 238.0
16.84750 254.0
16.86250 246.0
16.87750 271.0
16.89250 294.0
16.90750 271.0
16.92250 316.0
16.93750 289.0
16.95250 304.0
16.96750 321.0
16.98250 342.0
16.99750 377.0
17.01250 382.0
17.02750 366.0
17.04250 403.0
17.05750 417.0
17.07250 409.0
17.08750 425.0
17.10250 460.0
17.11750 475.0
17.13250 470.0
17.14750 497.0
17.16250 550.0
17.17750 567.0
17.19250 561.0
17.20750 552.0
17.22250 625.0
17.23750 636.0
17.25250 705.0
17.26750 683.0
17.28250 719.0
17.29750 778.0
17.31250 755.0
17.32750 764.0
17.34250 810.0
17.35750 862.0
17.37250 914.0
17.38750 912.0
17.40250 901.0
17.41750 1004.0
17.43250 1047.0
17.44750 1042.0
17.46250 1065.0
17.47750 1190.0
17.49250 1131.0
17.50750 1184.0
17.52250 1265.0
17.53750 1357.0
17.55250 1332.0
17.56750 1323.0
17.58250 1422.0
17.59750 1455.0
17.61250 1526.0
17.62750 1570.0
17.64250 1602.0
17.65750 1599.0
17.67250 1766.0
17.68750 1735.0
17.70250 1882.0
17.71750 1846.0
17.73250 1910.0
17.74750 2089.0
17.76250 2271.0
17.77750 2514.0
17.79250 2685.0
17.80750 3000.0
17.82250 3209.0
17.83750 3507.0
17.85250 3797.0
17.86750 3915.0
17.88250 3720.0
17.89750 3535.0
17.91250 3304.0
17.92750 3031.0
17.94250 2674.0
17.95750 2465.0
17.97250 2276.0
17.98750 2236.0
18.00250 2104.0
18.01750 1953.0
18.03250 1876.0
18.04750 1805.0
18.06250 1744.0
18.07750 1707.0
18.09250 1716.0
18.10750 1629.0
18.12250 1627.0
18.13750 1539.0
18.15250 1528.0
18.16750 1543.0
18.18250 1437.0
18.19750 1350.0
18.21250 1361.0
18.22750 1309.0
18.24250 1200.0
18.25750 1225.0
18.27250 1085.0
18.28750 1136.0
18.30250 1026.0
18.31750 1062.0
18.33250 989.0
18.34750 1054.0
18.36250 943.0
18.37750 924.0
18.39250 901.0
18.40750 782.0
18.42250 798.0
18.43750 799.0
18.45250 726.0
18.46750 779.0
18.48250 767.0
18.49750 642.0
18.51250 650.0
18.52750 565.0
18.54250 599.0
18.55750 577.0
18.57250 574.0
18.58750 557.0
18.60250 501.0
18.61750 500.0
18.63250 485.0
18.64750 478.0
18.66250 386.0
18.67750 448.0
18.69250 411.0
18.70750 373.0
18.72250 383.0
18.73750 376.0
18.75250 365.0
18.76750 374.0
18.78250 322.0
18.79750 308.0
18.81250 288.0
18.82750 263.0
18.84250 284.0
18.85750 282.0
18.87250 279.0
18.88750 278.0
18.90250 226.0
18.91750 235.0
18.93250 237.0
18.94750 263.0
18.96250 219.0
18.97750 203.0
18.99250 201.0
19.00750 195.0
19.02250 196.0
19.03750 166.0
19.05250 168.0
19.06750 164.0
19.08250 173.0
19.09750 179.0
19.11250 163.0
19.12750 171.0
19.14250 152.0
19.15750 156.0
19.17250 136.0
19.18750 153.0
19.20250 121.0
19.21750 144.0
19.23250 115.0
19.24750 117.0
19.26250 136.0
19.27750 128.0
19.29250 109.0
19.30750 127.0
19.32250 114.0
19.33750 115.0
19.35250 113.0
19.36750 112.0
19.38250 114.0
19.39750 99.0
19.41250 85.0
19.42750 120.0
19.44250 90.0
19.45750 73.0
19.47250 87.0
19.48750 102.0
19.50250 107.0
19.51750 97.0
19.53250 90.0
19.54750 91.0
19.56250 97.0
19.57750 76.0
19.59250 93.0
19.60750 87.0
19.62250 84.0
19.63750 89.0
19.65250 80.0
19.66750 78.0
19.68250 84.0
19.69750 72.0
19.71250 76.0
19.72750 74.0
19.74250 82.0
19.75750 65.0
19.77250 67.0
19.78750 64.0
19.80250 66.0
19.81750 70.0
19.83250 79.0
19.84750 83.0