Folder: DataAnalysis/data/w6928a/XRD_2ThetaOmega

Note: data/w6928a/XRD_2ThetaOmega/W6928a_peaks.TXT
No.	Label	Pos. [°2Th.]	FWHM Left [°2Th.]	Area [cts*°2Th.]	Backgr.[cts]	d-spacing [Å]	Height [cts]	Shape Left	Status	Integral Breadth [°2Th.]	FWHM Right [°2Th.]	Shape Right	Obs. Lorentz B [°2Th.]	Obs. Gauss B [°2Th.]	Instr. Lorentz B [°2Th.]	Instr. Gauss B [°2Th.]	Crystallite Size [Å]	Micro Strain [%]	Crystallite Size only [Å]	Micro Strain only [%]
1	Cr2O3 1 1 0	35,78209(9)	0,1130(3)	3285,45	110,15	2,50742	22222(49)	0,579(3)	Included	0,147849	 	 	0,091267	0,082226	0,073954	0,062651	5357,499000	0,071981	1431,309000	0,087592
2	Al2O3 1 1 0	37,70780(1)	0,03286(3)	10072,90	123,31	2,38368	242637(223)	0,488(1)	Included	0,041514	 	 	0,021919	0,026057	0,073930	0,062631	-1793,327000	-0,072774	29492,630000	0,004041

Note: README.md
# Methods
## RSM analysis

Check out [doc](documentation/RSM.md)

File: scan_2th-om_a_Cr2O3_30-40deg_PIXscan_4min_C1.xy
30.0025 47.0
30.0369 42.0
30.0714 43.0
30.1059 42.0
30.1403 48.0
30.1748 50.0
30.2093 50.0
30.2437 53.0
30.2782 56.0
30.3127 47.0
30.3471 56.0
30.3816 48.0
30.4161 60.0
30.4505 35.0
30.485 54.0
30.5195 47.0
30.5539 49.0
30.5884 47.0
30.6229 46.0
30.6573 47.0
30.6918 43.0
30.7263 38.0
30.7607 45.0
30.7952 41.0
30.8297 51.0
30.8641 44.0
30.8986 46.0
30.9331 52.0
30.9675 46.0
31.002 43.0
31.0365 47.0
31.0709 47.0
31.1054 48.0
31.1399 49.0
31.1743 40.0
31.2088 50.0
31.2433 36.0
31.2777 39.0
31.3122 48.0
31.3467 51.0
31.3811 56.0
31.4156 45.0
31.4501 41.0
31.4845 50.0
31.519 40.0
31.5535 50.0
31.5879 53.0
31.6224 47.0
31.6569 45.0
31.6913 61.0
31.7258 48.0
31.7603 41.0
31.7947 48.0
31.8292 44.0
31.8637 46.0
31.8981 53.0
31.9326 53.0
31.9671 54.0
32.0015 51.0
32.036 58.0
32.0705 51.0
32.1049 53.0
32.1394 65.0
32.1739 86.0
32.2083 120.0
32.2428 110.0
32.2773 109.0
32.3118 74.0
32.3462 71.0
32.3807 49.0
32.4152 58.0
32.4496 38.0
32.4841 54.0
32.5186 50.0
32.553 50.0
32.5875 49.0
32.622 53.0
32.6564 48.0
32.6909 52.0
32.7254 44.0
32.7598 47.0
32.7943 44.0
32.8288 36.0
32.8632 61.0
32.8977 47.0
32.9322 45.0
32.9666 56.0
33.0011 53.0
33.0356 59.0
33.07 41.0
33.1045 52.0
33.139 65.0
33.1734 58.0
33.2079 59.0
33.2424 56.0
33.2768 55.0
33.3113 41.0
33.3458 42.0
33.3802 51.0
33.4147 43.0
33.4492 35.0
33.4836 57.0
33.5181 53.0
33.5526 49.0
33.587 66.0
33.6215 46.0
33.656 43.0
33.6904 68.0
33.7249 56.0
33.7594 47.0
33.7938 58.0
33.8283 51.0
33.8628 64.0
33.8972 88.0
33.9317 399.0
33.9662 512.0
34.0006 119.0
34.0351 73.0
34.0696 63.0
34.104 60.0
34.1385 69.0
34.173 61.0
34.2074 57.0
34.2419 64.0
34.2764 57.0
34.3108 68.0
34.3453 68.0
34.3798 74.0
34.4142 57.0
34.4487 73.0
34.4832 79.0
34.5176 69.0
34.5521 65.0
34.5866 67.0
34.621 79.0
34.6555 85.0
34.69 83.0
34.7244 95.0
34.7589 76.0
34.7934 101.0
34.8278 100.0
34.8623 96.0
34.8968 88.0
34.9312 95.0
34.9657 145.0
35.0002 115.0
35.0346 129.0
35.0691 130.0
35.1036 145.0
35.138 130.0
35.1725 131.0
35.207 187.0
35.2414 188.0
35.2759 209.0
35.3104 209.0
35.3448 257.0
35.3793 255.0
35.4138 325.0
35.4482 378.0
35.4827 457.0
35.5172 626.0
35.5516 788.0
35.5861 1112.0
35.6206 1764.0
35.655 2742.0
35.6895 5156.0
35.724 11419.0
35.7584 22611.0
35.7929 24557.0
35.8274 19186.0
35.8619 17666.0
35.8963 12824.0
35.9308 7067.0
35.9653 3994.0
35.9997 2477.0
36.0342 1726.0
36.0687 1208.0
36.1031 969.0
36.1376 827.0
36.1721 595.0
36.2065 514.0
36.241 449.0
36.2755 344.0
36.3099 307.0
36.3444 304.0
36.3789 236.0
36.4133 257.0
36.4478 190.0
36.4823 189.0
36.5167 204.0
36.5512 186.0
36.5857 160.0
36.6201 153.0
36.6546 159.0
36.6891 139.0
36.7235 158.0
36.758 176.0
36.7925 164.0
36.8269 172.0
36.8614 189.0
36.8959 182.0
36.9303 176.0
36.9648 192.0
36.9993 255.0
37.0337 267.0
37.0682 281.0
37.1027 295.0
37.1371 298.0
37.1716 282.0
37.2061 326.0
37.2405 350.0
37.275 356.0
37.3095 422.0
37.3439 458.0
37.3784 538.0
37.4129 586.0
37.4473 667.0
37.4818 920.0
37.5163 1666.0
37.5507 2441.0
37.5852 2273.0
37.6197 3211.0
37.6541 8722.0
37.6886 100237.0
37.7231 136249.0
37.7575 14540.0
37.792 84885.0
37.8265 43046.0
37.8609 5189.0
37.8954 2348.0
37.9299 1565.0
37.9643 1118.0
37.9988 802.0
38.0333 659.0
38.0677 597.0
38.1022 485.0
38.1367 446.0
38.1711 351.0
38.2056 365.0
38.2401 319.0
38.2745 277.0
38.309 209.0
38.3435 201.0
38.3779 169.0
38.4124 152.0
38.4469 164.0
38.4813 116.0
38.5158 113.0
38.5503 113.0
38.5847 91.0
38.6192 106.0
38.6537 109.0
38.6881 84.0
38.7226 98.0
38.7571 80.0
38.7915 91.0
38.826 78.0
38.8605 92.0
38.8949 75.0
38.9294 80.0
38.9639 88.0
38.9983 80.0
39.0328 67.0
39.0673 65.0
39.1017 60.0
39.1362 60.0
39.1707 69.0
39.2051 68.0
39.2396 68.0
39.2741 57.0
39.3085 60.0
39.343 52.0
39.3775 72.0
39.412 56.0
39.4464 70.0
39.4809 53.0
39.5154 70.0
39.5498 44.0
39.5843 54.0
39.6188 65.0
39.6532 43.0
39.6877 67.0
39.7222 63.0
39.7566 55.0
39.7911 61.0
39.8256 61.0
39.86 53.0
39.8945 41.0
39.929 62.0
39.9634 70.0
39.9979 57.0