Folder: DataAnalysis/data/w6928a/XRD_Omega

Note: data/w6928a/XRD_Omega/W6928a_omega_peaks.TXT
No.	Label	Pos. [記mega]	FWHM Left [記mega]	Area [cts*記mega]	Backgr.[cts]	d-spacing [魔	Height [cts]	Shape Left	Status	Integral Breadth [記mega]	FWHM Right [記mega]	Shape Right	Obs. Lorentz B [記mega]	Obs. Gauss B [記mega]	Instr. Lorentz B [記mega]	Instr. Gauss B [記mega]	Crystallite Size [魔	Micro Strain [%]	Crystallite Size only [魔	Micro Strain only [%]
1	Cr2O3 1 1 0	18,1651(3)	0,6196(8)	4097,87	61,99	 	5346(8)	0,433(2)	Included	0,766539	 	 	0,362173	0,513718	0,075416	0,063886	311,728700	1,391273	126,317100	1,931531

Note: README.md
# Methods
## RSM analysis

Check out [doc](documentation/RSM.md)

File: film_a_scan_omega_4deg_step_0.005deg0_C1.xy
16.20680 61.0
16.22180 65.0
16.23680 40.0
16.25180 70.0
16.26680 60.0
16.28180 73.0
16.29680 72.0
16.31180 65.0
16.32680 64.0
16.34180 64.0
16.35680 73.0
16.37180 66.0
16.38680 69.0
16.40180 78.0
16.41680 92.0
16.43180 85.0
16.44680 102.0
16.46180 81.0
16.47680 85.0
16.49180 84.0
16.50680 101.0
16.52180 95.0
16.53680 85.0
16.55180 110.0
16.56680 76.0
16.58180 110.0
16.59680 105.0
16.61180 101.0
16.62680 126.0
16.64180 103.0
16.65680 143.0
16.67180 118.0
16.68680 106.0
16.70180 126.0
16.71680 126.0
16.73180 136.0
16.74680 167.0
16.76180 131.0
16.77680 150.0
16.79180 123.0
16.80680 159.0
16.82180 182.0
16.83680 162.0
16.85180 179.0
16.86680 188.0
16.88180 192.0
16.89680 195.0
16.91180 228.0
16.92680 229.0
16.94180 216.0
16.95680 228.0
16.97180 225.0
16.98680 249.0
17.00180 264.0
17.01680 280.0
17.03180 250.0
17.04680 275.0
17.06180 308.0
17.07680 304.0
17.09180 329.0
17.10680 356.0
17.12180 346.0
17.13680 395.0
17.15180 383.0
17.16680 407.0
17.18180 403.0
17.19680 420.0
17.21180 428.0
17.22680 429.0
17.24180 476.0
17.25680 469.0
17.27180 509.0
17.28680 535.0
17.30180 571.0
17.31680 577.0
17.33180 624.0
17.34680 665.0
17.36180 696.0
17.37680 725.0
17.39180 723.0
17.40680 790.0
17.42180 789.0
17.43680 864.0
17.45180 898.0
17.46680 901.0
17.48180 927.0
17.49680 973.0
17.51180 1087.0
17.52680 1088.0
17.54180 1137.0
17.55680 1189.0
17.57180 1304.0
17.58680 1334.0
17.60180 1349.0
17.61680 1491.0
17.63180 1544.0
17.64680 1610.0
17.66180 1777.0
17.67680 1802.0
17.69180 1921.0
17.70680 2060.0
17.72180 2134.0
17.73680 2303.0
17.75180 2334.0
17.76680 2453.0
17.78180 2525.0
17.79680 2756.0
17.81180 2890.0
17.82680 3046.0
17.84180 3281.0
17.85680 3503.0
17.87180 3694.0
17.88680 3878.0
17.90180 4073.0
17.91680 4357.0
17.93180 4487.0
17.94680 4671.0
17.96180 4967.0
17.97680 5314.0
17.99180 5582.0
18.00680 5849.0
18.02180 5938.0
18.03680 6521.0
18.05180 6786.0
18.06680 7133.0
18.08180 7521.0
18.09680 7716.0
18.11180 8115.0
18.12680 8428.0
18.14180 9271.0
18.15680 10148.0
18.17180 10635.0
18.18680 10346.0
18.20180 10498.0
18.21680 9844.0
18.23180 9396.0
18.24680 8675.0
18.26180 8229.0
18.27680 7851.0
18.29180 7255.0
18.30680 7082.0
18.32180 6433.0
18.33680 6307.0
18.35180 5985.0
18.36680 5674.0
18.38180 5346.0
18.39680 5018.0
18.41180 4766.0
18.42680 4621.0
18.44180 4264.0
18.45680 4153.0
18.47180 3964.0
18.48680 3688.0
18.50180 3439.0
18.51680 3390.0
18.53180 3073.0
18.54680 2959.0
18.56180 2845.0
18.57680 2614.0
18.59180 2488.0
18.60680 2401.0
18.62180 2223.0
18.63680 2182.0
18.65180 2016.0
18.66680 1926.0
18.68180 1749.0
18.69680 1678.0
18.71180 1560.0
18.72680 1500.0
18.74180 1407.0
18.75680 1353.0
18.77180 1358.0
18.78680 1267.0
18.80180 1186.0
18.81680 1112.0
18.83180 1041.0
18.84680 1087.0
18.86180 968.0
18.87680 906.0
18.89180 870.0
18.90680 856.0
18.92180 827.0
18.93680 760.0
18.95180 704.0
18.96680 681.0
18.98180 650.0
18.99680 623.0
19.01180 601.0
19.02680 606.0
19.04180 583.0
19.05680 572.0
19.07180 488.0
19.08680 493.0
19.10180 481.0
19.11680 434.0
19.13180 394.0
19.14680 402.0
19.16180 398.0
19.17680 362.0
19.19180 367.0
19.20680 374.0
19.22180 337.0
19.23680 348.0
19.25180 297.0
19.26680 310.0
19.28180 313.0
19.29680 258.0
19.31180 277.0
19.32680 197.0
19.34180 237.0
19.35680 261.0
19.37180 223.0
19.38680 227.0
19.40180 208.0
19.41680 203.0
19.43180 174.0
19.44680 194.0
19.46180 196.0
19.47680 165.0
19.49180 156.0
19.50680 164.0
19.52180 142.0
19.53680 164.0
19.55180 156.0
19.56680 148.0
19.58180 134.0
19.59680 126.0
19.61180 119.0
19.62680 126.0
19.64180 112.0
19.65680 126.0
19.67180 123.0
19.68680 127.0
19.70180 108.0
19.71680 105.0
19.73180 99.0
19.74680 93.0
19.76180 108.0
19.77680 99.0
19.79180 79.0
19.80680 88.0
19.82180 83.0
19.83680 91.0
19.85180 66.0
19.86680 77.0
19.88180 61.0
19.89680 78.0
19.91180 78.0
19.92680 74.0
19.94180 66.0
19.95680 64.0
19.97180 54.0
19.98680 58.0
20.00180 70.0
20.01680 58.0
20.03180 59.0
20.04680 57.0
20.06180 64.0
20.07680 57.0
20.09180 39.0
20.10680 56.0
20.12180 45.0
20.13680 50.0
20.15180 61.0
20.16680 63.0