Folder: DataAnalysis/data/W6815r2/XRD_2ThetaOmega

Note: data/W6815r2/XRD_2ThetaOmega/W6815r2_peaks.TXT
No.	Label	Pos. [°2Th.]	FWHM Left [°2Th.]	Area [cts*°2Th.]	Backgr.[cts]	d-spacing [Å]	Height [cts]	Shape Left	Status	Integral Breadth [°2Th.]	FWHM Right [°2Th.]	Shape Right	Obs. Lorentz B [°2Th.]	Obs. Gauss B [°2Th.]	Instr. Lorentz B [°2Th.]	Instr. Gauss B [°2Th.]	Crystallite Size [Å]	Micro Strain [%]	Crystallite Size only [Å]	Micro Strain only [%]
1	Cr2O3 0 1 2	24,3079(9)	0,217(4)	114,71	13,64	3,65870	361(4)	0,84(2)	Included	0,317328	 	 	0,273262	0,101110	0,074667	0,063253	454,662500	0,159814	382,032100	0,478848
2	Al2O3 0 1 2	25,50315(3)	0,04864(7)	2839,00	18,14	3,48987	50045(80)	0,271(2)	Included	0,056729	 	 	0,017215	0,045035	0,074550	0,063154	-1578,463000	-0,085364	28616,000000	0,006098
3	Cr2O3 0 2 4	49,934(2)	0,383(7)	63,14	15,98	1,82493	126(2)	0,57(3)	Included	0,499931	 	 	0,304850	0,281134	0,074535	0,063145	422,763800	0,256726	222,090400	0,410853
4	Al2O3 0 2 4	52,48220(3)	0,05458(9)	2979,01	39,10	1,74217	44391(70)	0,416(2)	Included	0,067108	 	 	0,030570	0,045830	0,074844	0,063406	-2222,822000	-0,038785	31117,110000	0,002799
5	Cr2O3 0 3 6	78,60(3)	1,2(1)	13,22	7,23	1,21615	7(1)	1,0(3)	Included	1,815431	 	 	1,806913	0,030659	0,082954	0,070275	66,166570	-0,033709	66,166350	0,919009
6	Al2O3 0 3 6	83,1591(2)	0,0686(4)	161,73	14,89	1,16068	1917(23)	0,42(1)	Included	0,084355	 	 	0,038537	0,057526	0,085578	0,072497	-2508,504000	-0,021698	37311,400000	0,001555
7	Al2O3 0 4 8	124,5760(1)	0,1020(4)	1047,42	22,26	0,87010	7369(23)	0,732(5)	Included	0,142137	 	 	0,108219	0,060763	0,144516	0,122396	-5229,573000	-0,024352	60018,490000	0,000725

Note: README.md
# Methods
## RSM analysis

Check out [doc](documentation/RSM.md)

File: W6815r2_absolute_2th-om_10-130deg_PIXscan_17min_6.xy
10.0035 20.0
10.4072 28.0
10.811 20.0
11.2147 23.0
11.6185 18.0
12.0222 16.0
12.426 31.0
12.8298 21.0
13.2335 24.0
13.6373 22.0
14.041 29.0
14.4448 15.0
14.8485 16.0
15.2523 19.0
15.656 15.0
16.0598 12.0
16.4636 19.0
16.8673 15.0
17.2711 14.0
17.6748 7.0
18.0786 15.0
18.4823 18.0
18.8861 3.0
19.2899 23.0
19.6936 12.0
20.0974 8.0
20.5011 8.0
20.9049 13.0
21.3086 14.0
21.7124 8.0
22.1161 9.0
22.5199 10.0
22.9237 12.0
23.3274 14.0
23.7312 18.0
24.1349 147.0
24.5387 86.0
24.9424 39.0
25.3462 343.0
25.75 317.0
26.1537 91.0
26.5575 32.0
26.9612 12.0
27.365 15.0
27.7687 11.0
28.1725 11.0
28.5762 15.0
28.98 4.0
29.3838 11.0
29.7875 14.0
30.1913 12.0
30.595 9.0
30.9988 8.0
31.4025 12.0
31.8063 11.0
32.2101 12.0
32.6138 5.0
33.0176 8.0
33.4213 5.0
33.8251 8.0
34.2288 9.0
34.6326 8.0
35.0363 11.0
35.4401 8.0
35.8439 14.0
36.2476 3.0
36.6514 8.0
37.0551 9.0
37.4589 7.0
37.8626 8.0
38.2664 3.0
38.6702 11.0
39.0739 10.0
39.4777 12.0
39.8814 8.0
40.2852 15.0
40.6889 8.0
41.0927 8.0
41.4964 10.0
41.9002 11.0
42.304 11.0
42.7077 11.0
43.1115 13.0
43.5152 10.0
43.919 10.0
44.3227 22.0
44.7265 12.0
45.1303 8.0
45.534 6.0
45.9378 11.0
46.3415 15.0
46.7453 9.0
47.149 28.0
47.5528 9.0
47.9565 14.0
48.3603 17.0
48.7641 23.0
49.1678 14.0
49.5716 33.0
49.9753 150.0
50.3791 35.0
50.7828 17.0
51.1866 13.0
51.5903 40.0
51.9941 71.0
52.3979 1492.0
52.8016 384.0
53.2054 105.0
53.6091 50.0
54.0129 43.0
54.4166 24.0
54.8204 16.0
55.2242 20.0
55.6279 12.0
56.0317 9.0
56.4354 11.0
56.8392 11.0
57.2429 12.0
57.6467 16.0
58.0504 15.0
58.4542 9.0
58.858 8.0
59.2617 6.0
59.6655 8.0
60.0692 11.0
60.473 16.0
60.8767 10.0
61.2805 9.0
61.6843 11.0
62.088 14.0
62.4918 16.0
62.8955 13.0
63.2993 9.0
63.703 20.0
64.1068 13.0
64.5105 14.0
64.9143 11.0
65.3181 12.0
65.7218 9.0
66.1256 8.0
66.5293 9.0
66.9331 16.0
67.3368 14.0
67.7406 11.0
68.1444 10.0
68.5481 13.0
68.9519 12.0
69.3556 9.0
69.7594 16.0
70.1631 7.0
70.5669 11.0
70.9706 12.0
71.3744 15.0
71.7782 11.0
72.1819 10.0
72.5857 12.0
72.9894 9.0
73.3932 9.0
73.7969 13.0
74.2007 11.0
74.6045 12.0
75.0082 12.0
75.412 9.0
75.8157 17.0
76.2195 4.0
76.6232 11.0
77.027 9.0
77.4307 8.0
77.8345 8.0
78.2383 18.0
78.642 17.0
79.0458 14.0
79.4495 14.0
79.8533 7.0
80.257 13.0
80.6608 19.0
81.0646 13.0
81.4683 11.0
81.8721 12.0
82.2758 13.0
82.6796 20.0
83.0833 145.0
83.4871 116.0
83.8908 14.0
84.2946 16.0
84.6984 18.0
85.1021 14.0
85.5059 10.0
85.9096 9.0
86.3134 10.0
86.7171 11.0
87.1209 6.0
87.5247 8.0
87.9284 13.0
88.3322 16.0
88.7359 6.0
89.1397 14.0
89.5434 15.0
89.9472 8.0
90.3509 9.0
90.7547 12.0
91.1585 16.0
91.5622 14.0
91.966 12.0
92.3697 12.0
92.7735 9.0
93.1772 12.0
93.581 16.0
93.9848 10.0
94.3885 15.0
94.7923 15.0
95.196 14.0
95.5998 9.0
96.0035 8.0
96.4073 19.0
96.811 10.0
97.2148 10.0
97.6186 19.0
98.0223 16.0
98.4261 13.0
98.8298 10.0
99.2336 12.0
99.6373 10.0
100.041 12.0
100.445 23.0
100.849 9.0
101.252 11.0
101.656 7.0
102.06 13.0
102.464 14.0
102.867 11.0
103.271 16.0
103.675 23.0
104.079 17.0
104.482 10.0
104.886 12.0
105.29 5.0
105.694 14.0
106.097 14.0
106.501 14.0
106.905 12.0
107.309 10.0
107.712 15.0
108.116 13.0
108.52 17.0
108.924 11.0
109.327 10.0
109.731 10.0
110.135 14.0
110.539 11.0
110.943 14.0
111.346 13.0
111.75 17.0
112.154 17.0
112.558 17.0
112.961 13.0
113.365 18.0
113.769 14.0
114.173 15.0
114.576 12.0
114.98 7.0
115.384 7.0
115.788 11.0
116.191 28.0
116.595 20.0
116.999 12.0
117.403 21.0
117.806 13.0
118.21 15.0
118.614 12.0
119.018 11.0
119.421 12.0
119.825 16.0
120.229 21.0
120.633 8.0
121.036 18.0
121.44 13.0
121.844 16.0
122.248 17.0
122.651 18.0
123.055 21.0
123.459 29.0
123.863 48.0
124.266 116.0
124.67 1515.0
125.074 2335.0
125.478 92.0
125.881 34.0
126.285 32.0
126.689 25.0
127.093 18.0
127.497 24.0
127.9 21.0
128.304 16.0
128.708 19.0
129.112 16.0
129.515 17.0
129.919 17.0
129.998 16.0